File: dataset/pixel4a.txt
voltage(V), current(mA), battery_percent, battery_temperature(Celsius), remaining_battery_charge(mAh), battery_capacity(mAh), battery_technology
3.768,-2725.832,1,32.5,153.85,3080,Unknown
3.809,-2948,1,32.6,184.62,3080,Unknown
3.809,-2951.051,1,32.6,184.62,3080,Unknown
3.809,-2985.231,1,32.6,184.62,3080,Unknown
3.809,-2820.131,1,32.6,184.62,3080,Unknown
3.851,-2556.459,2,34.3,184.62,3080,Unknown
3.851,-2989.198,2,34.3,184.62,3080,Unknown
3.851,-2988.283,2,34.3,184.62,3080,Unknown
3.851,-2993.471,2,34.3,184.62,3080,Unknown
3.891,-2993.471,2,35.1,184.62,3080,Unknown
3.891,-2992.555,2,35.1,184.62,3080,Unknown
3.891,-2994.081,2,35.1,184.62,3080,Unknown
3.891,-2989.809,2,35.1,184.62,3080,Unknown
3.917,-2991.335,2,35.8,215.39,3080,Unknown
3.917,-2991.64,2,35.8,215.39,3080,Unknown
3.917,-2992.555,2,35.8,215.39,3080,Unknown
3.917,-2988.588,2,35.8,215.39,3080,Unknown
3.947,-2999.269,3,36.4,215.39,3080,Unknown
3.954,-2997.133,3,36.5,215.39,3080,Unknown
3.98,-2997.133,4,37,246.16,3080,Unknown
3.984,-2999.88,4,37.1,246.16,3080,Unknown
3.988,-2992.861,4,37.2,276.93,3080,Unknown
3.993,-3001.405,5,37.5,276.93,3080,Unknown
3.993,-2998.049,6,37.5,276.93,3080,Unknown
3.994,-2994.081,6,37.6,307.7,3080,Unknown
3.997,-2998.049,7,37.8,307.7,3080,Unknown
3.997,-2993.471,7,37.8,307.7,3080,Unknown
4,-3001.1,8,38.1,338.47,3080,Unknown
4.003,-2991.64,8,38.2,338.47,3080,Unknown
4.005,-2998.964,9,38.4,369.24,3080,Unknown
4.007,-2994.692,9,38.4,369.24,3080,Unknown
4.008,-2998.049,9,38.5,369.24,3080,Unknown
4.01,-2996.828,9,38.6,400.01,3080,Unknown
4.012,-2995.607,10,38.7,400.01,3080,Unknown
4.015,-2997.133,10,38.9,400.01,3080,Unknown
4.016,-2999.88,11,38.9,430.78,3080,Unknown
4.021,-2995.302,11,39.1,430.78,3080,Unknown
4.023,-2996.523,11,39.1,461.55,3080,Unknown
4.023,-2998.354,11,39.1,461.55,3080,Unknown
4.026,-2997.743,12,39.3,461.55,3080,Unknown
4.028,-2995.302,13,39.4,461.55,3080,Unknown
4.032,-3000.185,13,39.5,492.32,3080,Unknown
4.036,-2994.386,14,39.6,523.09,3080,Unknown
4.038,-2997.743,14,39.7,523.09,3080,Unknown
4.04,-2992.861,15,39.7,523.09,3080,Unknown
4.043,-2999.88,15,39.8,553.86,3080,Unknown
4.048,-2998.049,16,40,584.63,3080,Unknown
4.052,-2995.912,17,40.2,584.63,3080,Unknown
4.054,-3000.185,17,40.2,615.4,3080,Unknown
4.057,-2998.354,18,40.3,615.4,3080,Unknown
4.059,-2999.88,18,40.4,646.17,3080,Unknown
4.059,-2994.386,18,40.4,646.17,3080,Unknown
4.059,-3000.185,18,40.4,646.17,3080,Unknown
4.061,-2995.607,19,40.5,646.17,3080,Unknown
4.066,-3003.237,19,40.6,676.94,3080,Unknown
4.067,-2999.88,20,40.6,676.94,3080,Unknown
4.071,-3002.016,21,40.8,707.71,3080,Unknown
4.072,-2997.743,21,40.8,707.71,3080,Unknown
4.074,-2999.269,21,40.8,738.48,3080,Unknown
4.074,-2883.302,22,40.8,738.48,3080,Unknown
4.074,-2381.593,22,40.8,738.48,3080,Unknown
4.027,-2388.307,22,41,738.48,3080,Unknown
4.027,-2390.138,22,41,738.48,3080,Unknown
4.027,-2388.307,22,41,738.48,3080,Unknown
4.027,-2387.391,22,41,738.48,3080,Unknown
4.024,-2390.443,22,40.4,738.48,3080,Unknown
4.024,-2394.105,22,40.4,738.48,3080,Unknown
4.024,-2391.053,23,39.8,769.25,3080,Unknown
4.024,-2387.697,23,39.8,769.25,3080,Unknown
4.024,-2393.495,23,39.8,769.25,3080,Unknown
4.024,-2391.053,23,39.8,769.25,3080,Unknown
4.025,-2392.579,23,39.7,769.25,3080,Unknown
4.026,-2393.495,23,39.6,769.25,3080,Unknown
4.027,-2394.105,23,39.6,769.25,3080,Unknown
4.027,-2392.885,24,39.6,769.25,3080,Unknown
4.027,-2394.105,24,39.6,769.25,3080,Unknown
4.028,-2392.274,24,39.6,800.02,3080,Unknown
4.031,-2393.19,24,39.4,800.02,3080,Unknown
4.031,-2389.528,24,39.4,800.02,3080,Unknown
4.032,-2384.34,25,39.3,830.79,3080,Unknown
4.035,-2393.8,25,39.2,830.79,3080,Unknown
4.035,-2393.495,25,39.2,830.79,3080,Unknown
4.035,-2392.579,25,39.2,830.79,3080,Unknown
4.035,-2395.631,25,39.2,830.79,3080,Unknown
4.035,-2392.579,25,39.1,830.79,3080,Unknown
4.038,-2394.41,26,39.1,830.79,3080,Unknown
4.04,-2391.969,26,39,861.56,3080,Unknown
4.04,-2392.885,26,39,861.56,3080,Unknown
4.042,-2391.053,27,39,861.56,3080,Unknown
4.043,-2396.852,27,39,892.33,3080,Unknown
4.044,-2391.664,27,39,892.33,3080,Unknown
4.045,-2394.105,28,39,892.33,3080,Unknown
4.045,-2393.19,28,39,892.33,3080,Unknown
4.046,-2391.969,28,38.9,892.33,3080,Unknown
4.048,-2391.969,28,39,923.1,3080,Unknown
4.048,-2379.152,28,39,923.1,3080,Unknown
4.048,-2385.865,28,39,923.1,3080,Unknown
4.048,-2384.34,28,39,923.1,3080,Unknown
4.048,-2386.476,29,39,923.1,3080,Unknown
4.048,-2390.138,29,39,923.1,3080,Unknown
4.048,-2387.697,29,39,923.1,3080,Unknown
4.048,-2383.424,29,39,923.1,3080,Unknown
4.048,-2385.255,29,39,923.1,3080,Unknown
4.048,-2384.95,29,39,923.1,3080,Unknown
4.048,-2296.449,29,39,923.1,3080,Unknown
4.048,-2385.255,29,39,923.1,3080,Unknown
4.015,-1933.9,29,39.3,953.87,3080,Unknown
4.015,-1936.646,29,39.3,953.87,3080,Unknown
4.015,-1939.088,29,39.3,953.87,3080,Unknown
4.015,-1937.562,29,39.3,953.87,3080,Unknown
4.011,-1940.919,30,39.1,953.87,3080,Unknown
4.01,-1938.172,30,39,953.87,3080,Unknown
4.009,-1939.698,30,38.9,953.87,3080,Unknown
4.009,-1940.309,30,38.9,953.87,3080,Unknown
4.009,-1936.036,31,39,984.64,3080,Unknown
4.011,-1939.698,31,38.9,984.64,3080,Unknown
4.011,-2392.885,31,38.8,984.64,3080,Unknown
4.05,-2393.8,31,39.1,984.64,3080,Unknown
4.055,-2391.664,32,39.5,1015.41,3080,Unknown
4.055,-2392.885,32,39.5,1015.41,3080,Unknown
4.059,-2392.579,32,39.6,1015.41,3080,Unknown
4.061,-2393.8,33,39.6,1046.18,3080,Unknown
4.062,-2393.495,33,39.6,1046.18,3080,Unknown
4.063,-2393.19,33,39.6,1046.18,3080,Unknown
4.065,-2393.8,34,39.6,1046.18,3080,Unknown
4.066,-2392.274,34,39.6,1076.95,3080,Unknown
4.066,-2388.612,34,39.6,1076.95,3080,Unknown
4.066,-2382.509,34,39.6,1076.95,3080,Unknown
4.066,-2391.969,34,39.6,1076.95,3080,Unknown
4.066,-2388.612,34,39.6,1076.95,3080,Unknown
4.066,-2393.19,34,39.6,1076.95,3080,Unknown
4.069,-2393.495,35,39.6,1107.72,3080,Unknown
4.071,-2394.41,35,39.6,1107.72,3080,Unknown
4.071,-2394.105,35,39.6,1107.72,3080,Unknown
4.074,-2393.8,36,39.5,1107.72,3080,Unknown
4.074,-2393.495,36,39.5,1107.72,3080,Unknown
4.076,-2394.105,36,39.5,1138.49,3080,Unknown
4.076,-2388.307,36,39.5,1138.49,3080,Unknown
4.076,-2396.852,36,39.5,1138.49,3080,Unknown
4.076,-2395.326,36,39.5,1138.49,3080,Unknown
4.077,-2393.495,37,39.5,1138.49,3080,Unknown
4.079,-2395.631,37,39.5,1138.49,3080,Unknown
4.081,-2387.391,37,39.4,1169.26,3080,Unknown
4.083,-2394.41,38,39.4,1169.26,3080,Unknown
4.085,-2395.936,38,39.4,1169.26,3080,Unknown
4.086,-2391.053,38,39.4,1200.03,3080,Unknown
4.087,-2392.885,38,39.4,1200.03,3080,Unknown
4.087,-2395.936,39,39.4,1200.03,3080,Unknown
4.089,-2395.631,39,39.4,1200.03,3080,Unknown
4.089,-2396.852,39,39.4,1200.03,3080,Unknown
4.089,-2395.326,39,39.4,1200.03,3080,Unknown
4.092,-2395.936,40,39.4,1230.8,3080,Unknown
4.094,-2396.547,40,39.4,1230.8,3080,Unknown
4.094,-2394.105,40,39.4,1230.8,3080,Unknown
4.096,-2395.936,41,39.4,1230.8,3080,Unknown
4.098,-2394.716,41,39.4,1261.57,3080,Unknown
4.098,-2396.547,41,39.4,1261.57,3080,Unknown
4.099,-2391.969,41,39.4,1261.57,3080,Unknown
4.1,-2395.936,41,39.4,1261.57,3080,Unknown
4.102,-2391.969,42,39.4,1292.34,3080,Unknown
4.102,-2392.885,42,39.4,1292.34,3080,Unknown
4.104,-2395.021,42,39.4,1292.34,3080,Unknown
4.104,-2395.631,42,39.4,1292.34,3080,Unknown
4.107,-2394.716,43,39.4,1323.11,3080,Unknown
4.109,-2391.664,43,39.4,1323.11,3080,Unknown
4.112,-2394.105,44,39.4,1323.11,3080,Unknown
4.112,-2393.8,44,39.4,1323.11,3080,Unknown
4.113,-2396.852,44,39.5,1353.88,3080,Unknown
4.115,-2391.359,44,39.5,1353.88,3080,Unknown
4.118,-2397.462,45,39.5,1353.88,3080,Unknown
4.118,-2393.19,45,39.5,1353.88,3080,Unknown
4.118,-2395.326,45,39.5,1353.88,3080,Unknown
4.12,-2395.936,45,39.5,1384.65,3080,Unknown
4.121,-2395.631,45,39.5,1384.65,3080,Unknown
4.122,-2396.852,46,39.5,1384.65,3080,Unknown
4.122,-2396.852,46,39.5,1384.65,3080,Unknown
4.124,-2395.021,46,39.5,1415.42,3080,Unknown
4.126,-2387.697,46,39.5,1415.42,3080,Unknown
4.126,-2394.105,46,39.5,1415.42,3080,Unknown
4.126,-2393.19,46,39.5,1415.42,3080,Unknown
4.129,-2394.105,47,39.5,1415.42,3080,Unknown
4.128,-2394.716,47,39.5,1415.42,3080,Unknown
4.129,-2393.8,47,39.5,1415.42,3080,Unknown
4.131,-2393.19,47,39.5,1446.19,3080,Unknown
4.134,-2391.969,48,39.6,1446.19,3080,Unknown
4.137,-2391.969,48,39.6,1446.19,3080,Unknown
4.136,-2394.41,48,39.6,1446.19,3080,Unknown
4.138,-2396.547,49,39.6,1476.96,3080,Unknown
4.139,-2392.885,49,39.6,1476.96,3080,Unknown
4.141,-2395.631,49,39.6,1476.96,3080,Unknown
4.144,-2392.579,49,39.6,1507.73,3080,Unknown
4.146,-2394.41,50,39.6,1507.73,3080,Unknown
4.146,-2396.547,50,39.6,1507.73,3080,Unknown
4.15,-2394.105,50,39.6,1538.5,3080,Unknown
4.152,-2395.936,51,39.6,1538.5,3080,Unknown
4.154,-2397.767,51,39.6,1538.5,3080,Unknown
4.156,-2394.41,51,39.6,1538.5,3080,Unknown
4.158,-2396.241,51,39.6,1569.27,3080,Unknown
4.159,-2395.021,52,39.6,1569.27,3080,Unknown
4.159,-2394.716,52,39.6,1569.27,3080,Unknown
4.161,-2395.936,52,39.6,1569.27,3080,Unknown
4.164,-2397.767,53,39.7,1600.04,3080,Unknown
4.164,-2396.852,53,39.7,1600.04,3080,Unknown
4.166,-2394.716,53,39.7,1600.04,3080,Unknown
4.169,-2394.716,53,39.7,1600.04,3080,Unknown
4.171,-2391.359,54,39.7,1630.81,3080,Unknown
4.171,-2393.8,54,39.7,1630.81,3080,Unknown
4.172,-2391.053,54,39.7,1630.81,3080,Unknown
4.175,-2390.138,54,39.7,1630.81,3080,Unknown
4.177,-2391.664,54,39.7,1630.81,3080,Unknown
4.179,-2395.631,55,39.7,1661.58,3080,Unknown
4.18,-2396.547,55,39.7,1661.58,3080,Unknown
4.185,-2390.748,56,39.7,1661.58,3080,Unknown
4.185,-2393.19,56,39.7,1661.58,3080,Unknown
4.187,-2395.936,56,39.7,1692.35,3080,Unknown
4.19,-2394.41,56,39.7,1692.35,3080,Unknown
4.193,-283.508,57,39.7,1692.35,3080,Unknown
4.193,-2395.326,57,39.7,1723.12,3080,Unknown
4.199,-2395.021,58,39.7,1723.12,3080,Unknown
4.201,-2396.547,58,39.8,1723.12,3080,Unknown
4.203,-2390.443,58,39.8,1753.89,3080,Unknown
4.203,-2394.105,58,39.8,1753.89,3080,Unknown
4.204,-2393.19,58,39.8,1753.89,3080,Unknown
4.204,-2389.222,58,39.8,1753.89,3080,Unknown
4.209,-2398.073,59,39.8,1753.89,3080,Unknown
4.209,-2391.969,59,39.8,1753.89,3080,Unknown
4.209,-2394.105,59,39.8,1753.89,3080,Unknown
4.209,-2387.697,59,39.8,1753.89,3080,Unknown
4.209,-2389.528,59,39.8,1753.89,3080,Unknown
4.209,-2396.547,59,39.8,1784.66,3080,Unknown
4.213,-2402.04,59,39.8,1784.66,3080,Unknown
4.22,-2394.105,60,40,1815.43,3080,Unknown
4.22,-2396.241,60,40,1815.43,3080,Unknown
4.223,-2393.495,61,40,1815.43,3080,Unknown
4.224,-2398.073,61,40,1815.43,3080,Unknown
4.226,-2395.631,61,40,1815.43,3080,Unknown
4.231,-2399.293,62,40.1,1846.2,3080,Unknown
4.234,-2395.936,62,40.1,1846.2,3080,Unknown
4.238,-2397.767,63,40.1,1876.97,3080,Unknown
4.244,-2396.547,63,40.1,1876.97,3080,Unknown
4.247,-2393.8,64,40.1,1907.74,3080,Unknown
4.249,-2395.936,64,40.1,1907.74,3080,Unknown
4.249,-2397.157,64,40.1,1907.74,3080,Unknown
4.249,-2395.936,64,40.1,1907.74,3080,Unknown
4.249,-2393.495,64,40.1,1907.74,3080,Unknown
4.252,-2394.716,64,40.1,1907.74,3080,Unknown
4.252,-2399.293,64,40.1,1907.74,3080,Unknown
4.252,-2397.462,64,40.1,1907.74,3080,Unknown
4.252,-2394.716,64,40.1,1907.74,3080,Unknown
4.253,-2395.326,65,40.1,1907.74,3080,Unknown
4.253,-2394.716,65,40.1,1907.74,3080,Unknown
4.253,-2395.631,65,40.1,1907.74,3080,Unknown
4.253,-2385.56,65,40.1,1907.74,3080,Unknown
4.256,-2374.879,65,40.1,1938.51,3080,Unknown
4.256,-2369.691,65,40.1,1938.51,3080,Unknown
4.256,-2351.991,65,40.1,1938.51,3080,Unknown
4.254,-2346.803,65,40.1,1938.51,3080,Unknown
4.255,-2341.005,65,40.1,1938.51,3080,Unknown
4.255,-2329.713,65,40.1,1938.51,3080,Unknown
4.255,-2323.61,65,40.1,1938.51,3080,Unknown
4.255,-2312.928,65,40.1,1938.51,3080,Unknown
4.254,-2300.111,66,40,1938.51,3080,Unknown
4.254,-2292.176,66,40,1938.51,3080,Unknown
4.254,-2288.82,66,40,1938.51,3080,Unknown
4.254,-2276.918,66,40,1938.51,3080,Unknown
4.255,-2271.424,66,40,1969.28,3080,Unknown
4.255,-2264.405,66,40,1969.28,3080,Unknown
4.255,-2280.885,66,40,1969.28,3080,Unknown
4.255,-2263.185,66,40,1969.28,3080,Unknown
4.252,-2253.724,66,39.9,1969.28,3080,Unknown
4.252,-2241.517,66,39.9,1969.28,3080,Unknown
4.229,-1937.257,66,40,1969.28,3080,Unknown
4.229,-1938.477,66,40,1969.28,3080,Unknown
4.23,-1940.309,66,39.8,1969.28,3080,Unknown
4.23,-1937.562,66,39.8,1969.28,3080,Unknown
4.23,-1942.14,66,39.7,1969.28,3080,Unknown
4.23,-1939.393,66,39.7,1969.28,3080,Unknown
4.23,-1940.614,67,39.6,1969.28,3080,Unknown
4.232,-1941.529,67,39.4,2000.05,3080,Unknown
4.234,-1937.562,67,39.4,2000.05,3080,Unknown
4.236,-1940.614,67,39.4,2000.05,3080,Unknown
4.24,-1939.088,68,39.3,2000.05,3080,Unknown
4.24,-1940.919,68,39.3,2030.82,3080,Unknown
4.242,-1943.36,68,39.3,2030.82,3080,Unknown
4.242,-1943.665,68,39.3,2030.82,3080,Unknown
4.243,-1942.445,68,39.2,2030.82,3080,Unknown
4.243,-1942.445,68,39.2,2030.82,3080,Unknown
4.243,-1944.276,68,39.2,2030.82,3080,Unknown
4.243,-1943.665,68,39.2,2030.82,3080,Unknown
4.247,-1940.614,69,39.2,2030.82,3080,Unknown
4.247,-1943.055,69,39.2,2030.82,3080,Unknown
4.247,-1941.529,69,39.2,2030.82,3080,Unknown
4.247,-1944.886,69,39.2,2030.82,3080,Unknown
4.249,-1941.529,69,39.2,2030.82,3080,Unknown
4.253,-1942.445,69,39.2,2061.59,3080,Unknown
4.267,-2091.371,69,39.1,2061.59,3080,Unknown
4.269,-2092.897,69,39.2,2061.59,3080,Unknown
4.274,-2096.253,70,39.3,2061.59,3080,Unknown
4.274,-2093.507,70,39.3,2061.59,3080,Unknown
4.277,-2093.812,70,39.3,2092.36,3080,Unknown
4.28,-2094.422,70,39.3,2092.36,3080,Unknown
4.283,-2094.117,70,39.2,2092.36,3080,Unknown
4.283,-2090.455,71,39.2,2092.36,3080,Unknown
4.283,-280.456,71,39.2,2092.36,3080,Unknown
4.284,-2093.812,71,39.2,2092.36,3080,Unknown
4.287,-2091.981,71,39.2,2092.36,3080,Unknown
4.288,-2095.643,71,39.2,2092.36,3080,Unknown
4.288,-2091.065,71,39.2,2092.36,3080,Unknown
4.292,-2092.591,71,39.2,2123.13,3080,Unknown
4.297,-2095.338,72,39.2,2123.13,3080,Unknown
4.297,-2094.728,72,39.2,2123.13,3080,Unknown
4.3,-2091.676,72,39.2,2123.13,3080,Unknown
4.3,-2082.521,72,39.2,2123.13,3080,Unknown
4.299,-2092.286,72,39.2,2123.13,3080,Unknown
4.299,-2086.183,72,39.2,2123.13,3080,Unknown
4.299,-2084.657,72,39.2,2123.13,3080,Unknown
4.301,-2088.624,72,39.1,2153.9,3080,Unknown
4.305,-2089.234,72,39.1,2153.9,3080,Unknown
4.308,-2092.591,73,39.2,2153.9,3080,Unknown
4.308,-2090.76,73,39.2,2153.9,3080,Unknown
4.311,-2093.812,73,39.2,2153.9,3080,Unknown
4.314,-2091.676,73,39.2,2184.67,3080,Unknown
4.319,-2094.117,74,39.2,2184.67,3080,Unknown
4.32,-2090.455,74,39.2,2184.67,3080,Unknown
4.324,-2096.253,74,39.2,2184.67,3080,Unknown
4.324,-2096.559,74,39.2,2184.67,3080,Unknown
4.329,-2092.897,74,39.2,2215.44,3080,Unknown
4.331,-2094.117,75,39.2,2215.44,3080,Unknown
4.334,-2095.338,75,39.1,2215.44,3080,Unknown
4.339,-2092.286,75,39.1,2215.44,3080,Unknown
4.34,-2094.422,75,39.1,2246.21,3080,Unknown
4.341,-2091.065,75,39.1,2246.21,3080,Unknown
4.343,-2092.286,75,39.1,2246.21,3080,Unknown
4.342,-2090.15,76,39.1,2246.21,3080,Unknown
4.342,-2093.202,76,39.1,2246.21,3080,Unknown
4.342,-2091.065,76,39.1,2246.21,3080,Unknown
4.342,-2091.371,76,39.1,2246.21,3080,Unknown
4.346,-2092.591,76,39.1,2246.21,3080,Unknown
4.346,-2092.286,76,39.1,2246.21,3080,Unknown
4.346,-2093.202,76,39.1,2246.21,3080,Unknown
4.346,-2094.728,76,39.1,2246.21,3080,Unknown
4.349,-2091.065,76,39.1,2246.21,3080,Unknown
4.349,-2082.215,76,39.1,2246.21,3080,Unknown
4.349,-2072.145,76,39.1,2246.21,3080,Unknown
4.349,-2064.515,76,39.1,2246.21,3080,Unknown
4.349,-2051.698,77,39,2276.98,3080,Unknown
4.349,-2041.627,77,39,2276.98,3080,Unknown
4.349,-2031.556,77,39,2276.98,3080,Unknown
4.349,-2014.771,77,39,2276.98,3080,Unknown
4.349,-2013.551,77,39,2276.98,3080,Unknown
4.349,-2002.259,77,39,2276.98,3080,Unknown
4.347,-1991.578,77,39,2276.98,3080,Unknown
4.347,-1985.169,77,39,2276.98,3080,Unknown
4.348,-1980.897,77,38.9,2276.98,3080,Unknown
4.348,-1966.859,77,38.9,2276.98,3080,Unknown
4.348,-1957.398,77,38.9,2276.98,3080,Unknown
4.348,-1956.178,77,38.9,2276.98,3080,Unknown
4.347,-1947.938,77,38.9,2276.98,3080,Unknown
4.347,-1938.783,77,38.9,2276.98,3080,Unknown
4.347,-1927.186,77,38.9,2276.98,3080,Unknown
4.347,-1921.388,77,38.9,2276.98,3080,Unknown
4.346,-1912.232,77,38.8,2307.75,3080,Unknown
4.346,-1903.687,77,38.8,2307.75,3080,Unknown
4.346,-1890.565,77,38.8,2307.75,3080,Unknown
4.346,-1889.954,77,38.8,2307.75,3080,Unknown
4.347,-1881.715,78,38.7,2307.75,3080,Unknown
4.347,-1868.592,78,38.7,2307.75,3080,Unknown
4.347,-1862.489,78,38.7,2307.75,3080,Unknown
4.347,-1857.911,78,38.7,2307.75,3080,Unknown
4.345,-1840.821,78,38.7,2307.75,3080,Unknown
4.345,-1843.263,78,38.7,2307.75,3080,Unknown
4.345,-1832.276,78,38.7,2307.75,3080,Unknown
4.345,-1825.257,78,38.7,2307.75,3080,Unknown
4.345,-1819.764,78,38.5,2307.75,3080,Unknown
4.345,-1804.505,78,38.5,2307.75,3080,Unknown
4.345,-1800.843,78,38.5,2307.75,3080,Unknown
4.345,-1785.889,78,38.5,2307.75,3080,Unknown
4.344,-1788.331,78,38.5,2307.75,3080,Unknown
4.344,-1781.312,78,38.5,2307.75,3080,Unknown
4.344,-1770.631,78,38.5,2307.75,3080,Unknown
4.344,-1762.696,78,38.5,2307.75,3080,Unknown
4.343,-1755.067,79,38.4,2338.52,3080,Unknown
4.343,-1748.658,79,38.4,2338.52,3080,Unknown
4.343,-1735.841,79,38.4,2338.52,3080,Unknown
4.343,-1735.23,79,38.4,2338.52,3080,Unknown
4.343,-1728.211,79,38.4,2338.52,3080,Unknown
4.343,-1718.751,79,38.4,2338.52,3080,Unknown
4.343,-1709.29,79,38.4,2338.52,3080,Unknown
4.343,-1708.07,79,38.4,2338.52,3080,Unknown
4.342,-1699.219,79,38.3,2338.52,3080,Unknown
4.342,-1691.285,79,38.3,2338.52,3080,Unknown
4.342,-1689.454,79,38.3,2338.52,3080,Unknown
4.342,-1672.364,79,38.3,2338.52,3080,Unknown
4.343,-1671.143,79,38.2,2338.52,3080,Unknown
4.343,-1658.631,79,38.2,2338.52,3080,Unknown
4.343,-1653.748,79,38.2,2338.52,3080,Unknown
4.343,-1646.119,79,38.2,2338.52,3080,Unknown
4.342,-1641.846,79,38.1,2338.52,3080,Unknown
4.342,-1631.47,79,38.1,2338.52,3080,Unknown
4.342,-1627.808,79,38.1,2338.52,3080,Unknown
4.342,-1627.808,79,38.1,2338.52,3080,Unknown
4.341,-1615.906,80,38.1,2369.29,3080,Unknown
4.341,-1600.953,80,38.1,2369.29,3080,Unknown
4.341,-1602.784,80,38.1,2369.29,3080,Unknown
4.341,-1593.018,80,38.1,2369.29,3080,Unknown
4.341,-1589.966,80,38,2369.29,3080,Unknown
4.341,-1581.116,80,38,2369.29,3080,Unknown
4.341,-1571.656,80,38,2369.29,3080,Unknown
4.341,-1571.351,80,38,2369.29,3080,Unknown
4.34,-1563.111,80,37.9,2369.29,3080,Unknown
4.34,-1558.839,80,37.9,2369.29,3080,Unknown
4.34,-1546.326,80,37.9,2369.29,3080,Unknown
4.34,-1543.275,80,37.9,2369.29,3080,Unknown
4.34,-1538.087,80,37.8,2369.29,3080,Unknown
4.34,-1533.204,80,37.8,2369.29,3080,Unknown
4.34,-1526.49,80,37.8,2369.29,3080,Unknown
4.337,-1487.122,80,37.8,2369.29,3080,Unknown
4.337,-1487.427,80,37.7,2369.29,3080,Unknown
4.337,-1484.681,80,37.7,2369.29,3080,Unknown
4.337,-1483.46,80,37.7,2369.29,3080,Unknown
4.337,-1485.596,80,37.7,2369.29,3080,Unknown
4.339,-1485.901,80,37.6,2369.29,3080,Unknown
4.339,-1487.122,80,37.6,2369.29,3080,Unknown
4.339,-1485.596,80,37.6,2369.29,3080,Unknown
4.339,-1487.122,80,37.6,2369.29,3080,Unknown
4.34,-1486.512,81,37.6,2400.06,3080,Unknown
4.34,-1485.291,81,37.6,2400.06,3080,Unknown
4.34,-1484.986,81,37.6,2400.06,3080,Unknown
4.341,-1486.207,81,37.5,2400.06,3080,Unknown
4.342,-1484.681,81,37.5,2400.06,3080,Unknown
4.342,-1487.427,81,37.5,2400.06,3080,Unknown
4.342,-1484.681,81,37.5,2400.06,3080,Unknown
4.342,-1483.155,81,37.5,2400.06,3080,Unknown
4.344,-1483.155,81,37.5,2400.06,3080,Unknown
4.344,-1487.427,81,37.5,2400.06,3080,Unknown
4.344,-1483.46,81,37.5,2400.06,3080,Unknown
4.344,-1486.817,81,37.5,2400.06,3080,Unknown
4.347,-1484.07,81,37.4,2400.06,3080,Unknown
4.347,-1489.258,81,37.4,2400.06,3080,Unknown
4.347,-1486.512,81,37.4,2400.06,3080,Unknown
4.347,-1485.596,81,37.4,2400.06,3080,Unknown
4.347,-1486.512,81,37.4,2400.06,3080,Unknown
4.349,-1486.817,81,37.4,2400.06,3080,Unknown
4.349,-1484.07,81,37.4,2400.06,3080,Unknown
4.349,-1485.291,81,37.4,2400.06,3080,Unknown
4.349,-1483.765,81,37.4,2400.06,3080,Unknown
4.352,-1484.986,82,37.3,2400.06,3080,Unknown
4.352,-1485.596,82,37.3,2400.06,3080,Unknown
4.352,-1484.986,82,37.3,2400.06,3080,Unknown
4.352,-1485.291,82,37.3,2400.06,3080,Unknown
4.353,-1485.901,82,37.3,2430.83,3080,Unknown
4.353,-1483.765,82,37.3,2430.83,3080,Unknown
4.353,-1487.733,82,37.3,2430.83,3080,Unknown
4.353,-1487.427,82,37.3,2430.83,3080,Unknown
4.355,-1485.291,82,37.2,2430.83,3080,Unknown
4.355,-1486.817,82,37.2,2430.83,3080,Unknown
4.355,-1486.512,82,37.2,2430.83,3080,Unknown
4.355,-1487.122,82,37.2,2430.83,3080,Unknown
4.358,-1484.986,82,37.2,2430.83,3080,Unknown
4.358,-1481.934,82,37.2,2430.83,3080,Unknown
4.358,-1487.427,82,37.2,2430.83,3080,Unknown
4.358,-1486.512,82,37.2,2430.83,3080,Unknown
4.361,-1484.07,82,37.2,2430.83,3080,Unknown
4.361,-1486.207,82,37.2,2430.83,3080,Unknown
4.361,-1487.427,82,37.2,2430.83,3080,Unknown
4.361,-1484.986,82,37.2,2430.83,3080,Unknown
4.362,-1484.986,82,37.1,2430.83,3080,Unknown
4.362,-1487.122,82,37.1,2430.83,3080,Unknown
4.362,-1487.122,82,37.1,2430.83,3080,Unknown
4.362,-1484.376,82,37.1,2430.83,3080,Unknown
4.365,-1485.291,83,37.1,2430.83,3080,Unknown
4.365,-1488.343,83,37.1,2430.83,3080,Unknown
4.365,-1485.901,83,37.1,2430.83,3080,Unknown
4.365,-1486.207,83,37.1,2430.83,3080,Unknown
4.367,-1486.512,83,37.1,2461.6,3080,Unknown
4.367,-1488.038,83,37.1,2461.6,3080,Unknown
4.367,-1485.596,83,37.1,2461.6,3080,Unknown
4.367,-1485.291,83,37.1,2461.6,3080,Unknown
4.369,-1485.596,83,37,2461.6,3080,Unknown
4.369,-1487.733,83,37,2461.6,3080,Unknown
4.369,-1484.986,83,37,2461.6,3080,Unknown
4.369,-1486.207,83,37,2461.6,3080,Unknown
4.372,-1485.596,83,37,2461.6,3080,Unknown
4.372,-1483.46,83,37,2461.6,3080,Unknown
4.375,-1486.512,83,36.9,2461.6,3080,Unknown
4.376,-1484.376,83,36.9,2461.6,3080,Unknown
4.378,-1482.545,83,36.9,2461.6,3080,Unknown
4.38,-1486.817,84,36.9,2461.6,3080,Unknown
4.381,-1484.681,84,36.9,2492.37,3080,Unknown
4.381,-1487.122,84,36.9,2492.37,3080,Unknown
4.384,-1486.207,84,36.8,2492.37,3080,Unknown
4.385,-1486.817,84,36.8,2492.37,3080,Unknown
4.386,-1484.986,84,36.8,2492.37,3080,Unknown
4.388,-1484.986,84,36.8,2492.37,3080,Unknown
4.392,-1484.07,85,36.7,2492.37,3080,Unknown
4.393,-1485.596,85,36.7,2492.37,3080,Unknown
4.393,-1487.733,85,36.7,2492.37,3080,Unknown
4.393,-1486.817,85,36.7,2492.37,3080,Unknown
4.393,-1485.291,85,36.7,2492.37,3080,Unknown
4.394,-1485.291,85,36.7,2523.14,3080,Unknown
4.394,-1486.207,85,36.7,2523.14,3080,Unknown
4.396,-1487.427,85,36.6,2523.14,3080,Unknown
4.396,-1487.122,85,36.6,2523.14,3080,Unknown
4.396,-1484.681,85,36.6,2523.14,3080,Unknown
4.396,-1485.901,85,36.6,2523.14,3080,Unknown
4.396,-1487.427,85,36.6,2523.14,3080,Unknown
4.396,-1484.681,85,36.6,2523.14,3080,Unknown
4.399,-1486.207,85,36.6,2523.14,3080,Unknown
4.399,-1484.986,85,36.6,2523.14,3080,Unknown
4.399,-1483.46,85,36.6,2523.14,3080,Unknown
4.399,-1484.681,85,36.6,2523.14,3080,Unknown
4.402,-1486.817,85,36.6,2523.14,3080,Unknown
4.402,-1488.953,85,36.6,2523.14,3080,Unknown
4.402,-1486.512,85,36.6,2523.14,3080,Unknown
4.402,-1485.901,85,36.6,2523.14,3080,Unknown
4.404,-1487.427,86,36.6,2523.14,3080,Unknown
4.404,-1487.733,86,36.6,2523.14,3080,Unknown
4.404,-1484.986,86,36.6,2523.14,3080,Unknown
4.404,-1486.207,86,36.6,2523.14,3080,Unknown
4.406,-1486.207,86,36.5,2523.14,3080,Unknown
4.407,-1485.291,86,36.5,2523.14,3080,Unknown
4.407,-1485.291,86,36.5,2523.14,3080,Unknown
4.407,-1485.901,86,36.5,2523.14,3080,Unknown
4.409,-1482.545,86,36.5,2553.91,3080,Unknown
4.409,-1486.512,86,36.5,2553.91,3080,Unknown
4.409,-1485.596,86,36.5,2553.91,3080,Unknown
4.409,-1486.817,86,36.5,2553.91,3080,Unknown
4.411,-1488.343,86,36.5,2553.91,3080,Unknown
4.414,-1485.596,86,36.5,2553.91,3080,Unknown
4.414,-1484.681,86,36.5,2553.91,3080,Unknown
4.415,-1485.596,86,36.4,2553.91,3080,Unknown
4.418,-1485.291,87,36.4,2553.91,3080,Unknown
4.419,-1484.681,87,36.5,2553.91,3080,Unknown
4.419,-1485.596,87,36.5,2553.91,3080,Unknown
4.422,-1485.901,87,36.4,2584.68,3080,Unknown
4.425,-1484.986,87,36.4,2584.68,3080,Unknown
4.425,-1481.934,87,36.4,2584.68,3080,Unknown
4.427,-1481.629,87,36.4,2584.68,3080,Unknown
4.427,-1482.545,87,36.4,2584.68,3080,Unknown
4.428,-1486.817,87,36.4,2584.68,3080,Unknown
4.43,-1484.986,88,36.4,2584.68,3080,Unknown
4.433,-1485.596,88,36.4,2584.68,3080,Unknown
4.436,-1486.512,88,36.4,2615.45,3080,Unknown
4.437,-1487.122,88,36.4,2615.45,3080,Unknown
4.437,-1486.207,88,36.4,2615.45,3080,Unknown
4.44,-1485.291,88,36.3,2615.45,3080,Unknown
4.44,-1485.291,88,36.3,2615.45,3080,Unknown
4.443,-1485.596,88,36.3,2615.45,3080,Unknown
4.445,-1486.817,89,36.3,2615.45,3080,Unknown
4.448,-1486.512,89,36.3,2615.45,3080,Unknown
4.449,-1486.207,89,36.3,2646.22,3080,Unknown
4.449,-1483.765,89,36.3,2646.22,3080,Unknown
4.451,-1486.817,89,36.3,2646.22,3080,Unknown
4.452,-1485.596,89,36.3,2646.22,3080,Unknown
4.452,-1488.648,89,36.3,2646.22,3080,Unknown
4.452,-1484.986,89,36.3,2646.22,3080,Unknown
4.452,-1486.512,89,36.3,2646.22,3080,Unknown
4.454,-1486.817,89,36.3,2646.22,3080,Unknown
4.454,-1484.986,89,36.3,2646.22,3080,Unknown
4.454,-1487.122,89,36.3,2646.22,3080,Unknown
4.454,-1486.207,89,36.3,2646.22,3080,Unknown
4.456,-1485.596,90,36.3,2646.22,3080,Unknown
4.456,-1484.681,90,36.3,2646.22,3080,Unknown
4.456,-1485.596,90,36.3,2646.22,3080,Unknown
4.456,-1486.817,90,36.3,2646.22,3080,Unknown
4.457,-1485.596,90,36.2,2646.22,3080,Unknown
4.457,-1479.798,90,36.2,2646.22,3080,Unknown
4.457,-1480.103,90,36.2,2646.22,3080,Unknown
4.457,-1470.643,90,36.2,2646.22,3080,Unknown
4.458,-1458.436,90,36.2,2646.22,3080,Unknown
4.458,-1452.027,90,36.2,2646.22,3080,Unknown
4.458,-1445.618,90,36.2,2646.22,3080,Unknown
4.458,-1443.177,90,36.2,2646.22,3080,Unknown
4.458,-1441.956,90,36.2,2676.99,3080,Unknown
4.458,-1427.002,90,36.2,2676.99,3080,Unknown
4.458,-1426.392,90,36.2,2676.99,3080,Unknown
4.458,-1418.152,90,36.2,2676.99,3080,Unknown
4.458,-1415.101,90,36.2,2676.99,3080,Unknown
4.458,-1405.64,90,36.2,2676.99,3080,Unknown
4.458,-1403.199,90,36.2,2676.99,3080,Unknown
4.458,-1394.959,90,36.2,2676.99,3080,Unknown
4.456,-1396.79,90,36.2,2676.99,3080,Unknown
4.456,-1385.804,90,36.2,2676.99,3080,Unknown
4.456,-1381.226,90,36.2,2676.99,3080,Unknown
4.456,-1377.869,90,36.2,2676.99,3080,Unknown
4.456,-1381.226,91,36.1,2676.99,3080,Unknown
4.456,-1369.935,91,36.1,2676.99,3080,Unknown
4.456,-1360.474,91,36.1,2676.99,3080,Unknown
4.456,-1355.896,91,36.1,2676.99,3080,Unknown
4.456,-1349.488,91,36.1,2676.99,3080,Unknown
4.456,-1349.488,91,36.1,2676.99,3080,Unknown
4.456,-1340.027,91,36.1,2676.99,3080,Unknown
4.456,-1337.281,91,36.1,2676.99,3080,Unknown
4.456,-1327.515,91,36.1,2676.99,3080,Unknown
4.456,-1327.515,91,36.1,2676.99,3080,Unknown
4.456,-1320.496,91,36.1,2676.99,3080,Unknown
4.456,-1314.698,91,36.1,2676.99,3080,Unknown
4.455,-1308.289,91,36,2676.99,3080,Unknown
4.455,-1306.153,91,36,2676.99,3080,Unknown
4.455,-1300.965,91,36,2676.99,3080,Unknown
4.455,-1292.725,91,36,2676.99,3080,Unknown
4.455,-1287.537,91,36,2707.76,3080,Unknown
4.455,-1287.537,91,36,2707.76,3080,Unknown
4.455,-1287.232,91,36,2707.76,3080,Unknown
4.455,-1282.654,91,36,2707.76,3080,Unknown
4.455,-1278.382,91,36,2707.76,3080,Unknown
4.455,-1270.142,91,36,2707.76,3080,Unknown
4.455,-1267.09,91,36,2707.76,3080,Unknown
4.455,-1262.207,91,35.9,2707.76,3080,Unknown
4.455,-1258.851,91,35.9,2707.76,3080,Unknown
4.455,-1256.409,91,35.9,2707.76,3080,Unknown
4.455,-1248.169,91,35.9,2707.76,3080,Unknown
4.455,-1247.559,91,35.9,2707.76,3080,Unknown
4.454,-1244.202,92,35.9,2707.76,3080,Unknown
4.454,-1238.709,92,35.9,2707.76,3080,Unknown
4.454,-1229.859,92,35.9,2707.76,3080,Unknown
4.454,-1230.164,92,35.9,2707.76,3080,Unknown
4.453,-1222.84,92,35.9,2707.76,3080,Unknown
4.453,-1219.483,92,35.9,2707.76,3080,Unknown
4.453,-1212.769,92,35.9,2707.76,3080,Unknown
4.453,-1211.853,92,35.9,2707.76,3080,Unknown
4.453,-1209.717,92,35.8,2707.76,3080,Unknown
4.453,-1203.308,92,35.8,2707.76,3080,Unknown
4.453,-1199.341,92,35.8,2707.76,3080,Unknown
4.453,-1196.595,92,35.8,2707.76,3080,Unknown
4.453,-1189.881,92,35.8,2707.76,3080,Unknown
4.453,-1183.472,92,35.8,2707.76,3080,Unknown
4.453,-1184.082,92,35.8,2707.76,3080,Unknown
4.453,-1180.42,92,35.8,2707.76,3080,Unknown
4.452,-1170.349,92,35.7,2738.53,3080,Unknown
4.452,-1164.551,92,35.7,2738.53,3080,Unknown
4.452,-1161.805,92,35.7,2738.53,3080,Unknown
4.452,-1159.668,92,35.7,2738.53,3080,Unknown
4.451,-1152.344,92,35.7,2738.53,3080,Unknown
4.451,-1150.818,92,35.7,2738.53,3080,Unknown
4.451,-1146.851,92,35.7,2738.53,3080,Unknown
4.451,-1143.799,92,35.7,2738.53,3080,Unknown
4.452,-1139.222,92,35.7,2738.53,3080,Unknown
4.452,-1134.034,92,35.7,2738.53,3080,Unknown
4.452,-1131.592,92,35.7,2738.53,3080,Unknown
4.452,-1124.573,92,35.7,2738.53,3080,Unknown
4.451,-1120.911,92,35.6,2738.53,3080,Unknown
4.451,-1118.47,92,35.6,2738.53,3080,Unknown
4.451,-1120.301,92,35.6,2738.53,3080,Unknown
4.451,-1117.859,92,35.6,2738.53,3080,Unknown
4.451,-1112.061,93,35.6,2738.53,3080,Unknown
4.451,-1103.821,93,35.6,2738.53,3080,Unknown
4.451,-1105.347,93,35.6,2738.53,3080,Unknown
4.451,-1097.412,93,35.6,2738.53,3080,Unknown
4.451,-1095.887,93,35.6,2738.53,3080,Unknown
4.451,-1098.023,93,35.6,2738.53,3080,Unknown
4.451,-1088.867,93,35.6,2738.53,3080,Unknown
4.451,-1083.374,93,35.6,2738.53,3080,Unknown
4.451,-1087.647,93,35.6,2738.53,3080,Unknown
4.45,-1077.271,93,35.5,2738.53,3080,Unknown
4.45,-1080.323,93,35.5,2738.53,3080,Unknown
4.45,-1072.388,93,35.5,2738.53,3080,Unknown
4.45,-1070.252,93,35.5,2738.53,3080,Unknown
4.451,-1029.053,93,35.5,2738.53,3080,Unknown
4.448,-1028.748,93,35.5,2738.53,3080,Unknown
4.448,-1029.969,93,35.5,2738.53,3080,Unknown
4.448,-1029.969,93,35.5,2738.53,3080,Unknown
4.449,-1028.748,93,35.5,2769.3,3080,Unknown
4.449,-1027.222,93,35.5,2769.3,3080,Unknown
4.449,-1029.663,93,35.5,2769.3,3080,Unknown
4.449,-1025.391,93,35.5,2769.3,3080,Unknown
4.449,-1029.053,93,35.4,2769.3,3080,Unknown
4.449,-1029.663,93,35.4,2769.3,3080,Unknown
4.449,-1031.494,93,35.4,2769.3,3080,Unknown
4.449,-1028.137,93,35.4,2769.3,3080,Unknown
4.45,-1030.884,93,35.4,2769.3,3080,Unknown
4.45,-1028.443,93,35.4,2769.3,3080,Unknown
4.45,-1025.696,93,35.4,2769.3,3080,Unknown
4.45,-1027.527,93,35.4,2769.3,3080,Unknown
4.452,-1031.189,93,35.3,2769.3,3080,Unknown
4.452,-1027.222,93,35.3,2769.3,3080,Unknown
4.453,-1029.053,93,35.3,2769.3,3080,Unknown
4.453,-1029.053,93,35.3,2769.3,3080,Unknown
4.452,-1031.494,94,35.3,2769.3,3080,Unknown
4.452,-1029.663,94,35.3,2769.3,3080,Unknown
4.452,-1028.443,94,35.3,2769.3,3080,Unknown
4.452,-1031.8,94,35.3,2769.3,3080,Unknown
4.454,-1029.663,94,35.3,2769.3,3080,Unknown
4.454,-1028.443,94,35.3,2769.3,3080,Unknown
4.454,-1027.832,94,35.3,2769.3,3080,Unknown
4.455,-1027.832,94,35.3,2769.3,3080,Unknown
4.456,-1028.137,94,35.3,2769.3,3080,Unknown
4.456,-1029.358,94,35.3,2769.3,3080,Unknown
4.456,-1029.053,94,35.3,2769.3,3080,Unknown
4.456,-1030.579,94,35.3,2769.3,3080,Unknown
4.457,-1029.663,94,35.2,2769.3,3080,Unknown
4.457,-1029.358,94,35.2,2769.3,3080,Unknown
4.457,-1024.781,94,35.2,2769.3,3080,Unknown
4.457,-1030.274,94,35.2,2769.3,3080,Unknown
4.459,-1031.189,94,35.2,2800.07,3080,Unknown
4.459,-1029.663,94,35.2,2800.07,3080,Unknown
4.459,-1028.137,94,35.2,2800.07,3080,Unknown
4.459,-1027.832,94,35.2,2800.07,3080,Unknown
4.46,-1028.137,94,35.2,2800.07,3080,Unknown
4.46,-1026.917,94,35.2,2800.07,3080,Unknown
4.46,-1028.443,94,35.2,2800.07,3080,Unknown
4.46,-1018.372,94,35.2,2800.07,3080,Unknown
4.46,-1017.151,94,35.2,2800.07,3080,Unknown
4.46,-1011.658,94,35.2,2800.07,3080,Unknown
4.46,-1010.437,94,35.2,2800.07,3080,Unknown
4.46,-1002.503,94,35.2,2800.07,3080,Unknown
4.46,-1005.86,94,35.1,2800.07,3080,Unknown
4.46,-1002.197,94,35.1,2800.07,3080,Unknown
4.46,-995.484,94,35.1,2800.07,3080,Unknown
4.46,-994.568,94,35.1,2800.07,3080,Unknown
4.46,-991.516,94,35.1,2800.07,3080,Unknown
4.46,-987.549,94,35.1,2800.07,3080,Unknown
4.46,-982.361,94,35.1,2800.07,3080,Unknown
4.46,-980.835,94,35.1,2800.07,3080,Unknown
4.459,-976.563,95,35.1,2800.07,3080,Unknown
4.459,-974.426,95,35.1,2800.07,3080,Unknown
4.459,-968.628,95,35.1,2800.07,3080,Unknown
4.459,-967.102,95,35.1,2800.07,3080,Unknown
4.459,-963.745,95,35.1,2800.07,3080,Unknown
4.459,-958.862,95,35.1,2800.07,3080,Unknown
4.459,-955.506,95,35.1,2800.07,3080,Unknown
4.459,-951.843,95,35.1,2800.07,3080,Unknown
4.458,-948.181,95,35,2800.07,3080,Unknown
4.458,-948.181,95,35,2800.07,3080,Unknown
4.457,-945.435,95,35,2800.07,3080,Unknown
4.457,-940.247,95,35,2800.07,3080,Unknown
4.458,-937.5,95,35,2800.07,3080,Unknown
4.458,-933.228,95,35,2800.07,3080,Unknown
4.458,-929.871,95,35,2800.07,3080,Unknown
4.458,-926.819,95,35,2800.07,3080,Unknown
4.458,-928.65,95,35,2830.84,3080,Unknown
4.458,-916.748,95,35,2830.84,3080,Unknown
4.458,-916.748,95,35,2830.84,3080,Unknown
4.458,-915.833,95,35,2830.84,3080,Unknown
4.458,-914.917,95,34.9,2830.84,3080,Unknown
4.458,-909.729,95,34.9,2830.84,3080,Unknown
4.458,-911.56,95,34.9,2830.84,3080,Unknown
4.458,-899.658,95,34.9,2830.84,3080,Unknown
4.458,-911.255,95,34.9,2830.84,3080,Unknown
4.458,-899.048,95,34.9,2830.84,3080,Unknown
4.458,-897.522,95,34.9,2830.84,3080,Unknown
4.458,-885.925,95,34.9,2830.84,3080,Unknown
4.457,-888.062,95,34.9,2830.84,3080,Unknown
4.457,-891.113,95,34.9,2830.84,3080,Unknown
4.457,-881.348,95,34.9,2830.84,3080,Unknown
4.457,-881.958,95,34.9,2830.84,3080,Unknown
4.457,-880.737,95,34.8,2830.84,3080,Unknown
4.457,-880.432,95,34.8,2830.84,3080,Unknown
4.457,-878.296,95,34.8,2830.84,3080,Unknown
4.457,-875.855,95,34.8,2830.84,3080,Unknown
4.456,-871.582,95,34.8,2830.84,3080,Unknown
4.456,-868.53,95,34.8,2830.84,3080,Unknown
4.456,-864.563,95,34.8,2830.84,3080,Unknown
4.456,-867.31,95,34.8,2830.84,3080,Unknown
4.457,-859.985,95,34.8,2830.84,3080,Unknown
4.457,-858.765,95,34.8,2830.84,3080,Unknown
4.457,-854.492,95,34.8,2830.84,3080,Unknown
4.457,-855.408,95,34.8,2830.84,3080,Unknown
4.456,-849.915,96,34.8,2830.84,3080,Unknown
4.456,-852.356,96,34.8,2830.84,3080,Unknown
4.456,-847.778,96,34.8,2830.84,3080,Unknown
4.456,-841.675,96,34.8,2830.84,3080,Unknown
4.457,-841.37,96,34.7,2830.84,3080,Unknown
4.457,-830.994,96,34.7,2830.84,3080,Unknown
4.457,-825.195,96,34.7,2830.84,3080,Unknown
4.457,-825.501,96,34.7,2830.84,3080,Unknown
4.456,-825.501,96,34.6,2830.84,3080,Unknown
4.456,-814.209,96,34.6,2830.84,3080,Unknown
4.456,-821.838,96,34.6,2830.84,3080,Unknown
4.456,-816.345,96,34.6,2830.84,3080,Unknown
4.456,-813.904,96,34.5,2861.61,3080,Unknown
4.456,-809.937,96,34.5,2861.61,3080,Unknown
4.456,-808.716,96,34.5,2861.61,3080,Unknown
4.456,-808.411,96,34.5,2861.61,3080,Unknown
4.456,-801.392,96,34.5,2861.61,3080,Unknown
4.456,-802.307,96,34.5,2861.61,3080,Unknown
4.456,-802.307,96,34.5,2861.61,3080,Unknown
4.456,-792.236,96,34.5,2861.61,3080,Unknown
4.456,-798.95,96,34.4,2861.61,3080,Unknown
4.456,-794.067,96,34.4,2861.61,3080,Unknown
4.456,-795.288,96,34.4,2861.61,3080,Unknown
4.456,-791.931,96,34.4,2861.61,3080,Unknown
4.454,-783.691,96,34.4,2861.61,3080,Unknown
4.454,-785.828,96,34.4,2861.61,3080,Unknown
4.454,-777.283,96,34.4,2861.61,3080,Unknown
4.454,-776.062,96,34.4,2861.61,3080,Unknown
4.454,-269.165,96,34.4,2861.61,3080,Unknown
4.455,-774.841,96,34.3,2861.61,3080,Unknown
4.455,-771.484,96,34.3,2861.61,3080,Unknown
4.455,-772.4,96,34.3,2861.61,3080,Unknown
4.455,-762.024,96,34.3,2861.61,3080,Unknown
4.455,-768.127,96,34.3,2861.61,3080,Unknown
4.455,-760.193,96,34.3,2861.61,3080,Unknown
4.455,-761.719,96,34.3,2861.61,3080,Unknown
4.455,-757.752,96,34.3,2861.61,3080,Unknown
4.456,-761.108,96,34.2,2861.61,3080,Unknown
4.456,-755.615,96,34.2,2861.61,3080,Unknown
4.456,-755.31,96,34.2,2861.61,3080,Unknown
4.456,-754.395,96,34.2,2861.61,3080,Unknown
4.455,-747.07,96,34.2,2861.61,3080,Unknown
4.455,-743.713,96,34.2,2861.61,3080,Unknown
4.455,-737.305,96,34.2,2861.61,3080,Unknown
4.455,-742.188,96,34.2,2861.61,3080,Unknown
4.455,-739.746,97,34.2,2861.61,3080,Unknown
4.455,-740.662,97,34.2,2861.61,3080,Unknown
4.455,-732.117,97,34.2,2861.61,3080,Unknown
4.449,-671.997,97,34.2,2861.61,3080,Unknown
4.45,-674.133,97,34.2,2861.61,3080,Unknown
4.45,-672.607,97,34.2,2861.61,3080,Unknown
4.45,-673.523,97,34.2,2861.61,3080,Unknown
4.45,-671.692,97,34.2,2861.61,3080,Unknown
4.45,-672.607,97,34.1,2861.61,3080,Unknown
4.45,-671.997,97,34.1,2861.61,3080,Unknown
4.45,-673.828,97,34.1,2861.61,3080,Unknown
4.45,-674.744,97,34.1,2861.61,3080,Unknown
4.449,-671.997,97,34.1,2861.61,3080,Unknown
4.449,-673.828,97,34.1,2861.61,3080,Unknown
4.449,-674.133,97,34.1,2861.61,3080,Unknown
4.449,-673.523,97,34.1,2861.61,3080,Unknown
4.45,-671.387,97,34,2892.38,3080,Unknown
4.45,-672.302,97,34,2892.38,3080,Unknown
4.451,-668.64,97,34,2892.38,3080,Unknown
4.452,-672.607,97,34,2892.38,3080,Unknown
4.452,-672.913,97,34,2892.38,3080,Unknown
4.453,-673.218,97,34,2892.38,3080,Unknown
4.453,-671.997,97,34,2892.38,3080,Unknown
4.454,-671.997,97,33.9,2892.38,3080,Unknown
4.455,-670.166,97,33.9,2892.38,3080,Unknown
4.455,-675.049,97,33.9,2892.38,3080,Unknown
4.456,-671.692,98,33.9,2892.38,3080,Unknown
4.456,-671.387,98,33.9,2892.38,3080,Unknown
4.456,-674.438,98,33.9,2892.38,3080,Unknown
4.456,-675.049,98,33.9,2892.38,3080,Unknown
4.456,-675.659,98,33.9,2892.38,3080,Unknown
4.457,-677.795,98,33.9,2892.38,3080,Unknown
4.457,-676.27,98,33.9,2892.38,3080,Unknown
4.457,-675.049,98,33.9,2892.38,3080,Unknown
4.457,-675.659,98,33.9,2892.38,3080,Unknown
4.457,-672.607,98,33.8,2892.38,3080,Unknown
4.457,-672.913,98,33.8,2892.38,3080,Unknown
4.457,-675.659,98,33.8,2892.38,3080,Unknown
4.457,-674.133,98,33.8,2892.38,3080,Unknown
4.458,-673.218,98,33.8,2892.38,3080,Unknown
4.458,-668.335,98,33.8,2892.38,3080,Unknown
4.458,-671.997,98,33.8,2892.38,3080,Unknown
4.458,-672.302,98,33.8,2892.38,3080,Unknown
4.457,-671.997,98,33.8,2892.38,3080,Unknown
4.457,-671.997,98,33.8,2892.38,3080,Unknown
4.457,-672.913,98,33.8,2892.38,3080,Unknown
4.457,-672.913,98,33.8,2892.38,3080,Unknown
4.458,-673.828,98,33.8,2923.15,3080,Unknown
4.458,-672.913,98,33.8,2923.15,3080,Unknown
4.458,-672.913,98,33.8,2923.15,3080,Unknown
4.458,-672.913,98,33.8,2923.15,3080,Unknown
4.457,-672.607,98,33.8,2923.15,3080,Unknown
4.457,-676.27,98,33.8,2923.15,3080,Unknown
4.457,-668.945,98,33.8,2923.15,3080,Unknown
4.459,-668.03,98,33.9,2923.15,3080,Unknown
4.457,-668.03,98,33.9,2923.15,3080,Unknown
4.457,-669.861,98,33.9,2923.15,3080,Unknown
4.457,-672.302,98,33.9,2923.15,3080,Unknown
4.457,-670.776,98,33.9,2923.15,3080,Unknown
4.46,-673.218,98,33.9,2923.15,3080,Unknown
4.46,-675.049,98,33.9,2923.15,3080,Unknown
4.46,-671.692,98,33.9,2923.15,3080,Unknown
4.46,-668.03,98,33.9,2923.15,3080,Unknown
4.458,-671.997,98,34,2923.15,3080,Unknown
4.458,-672.913,98,34,2923.15,3080,Unknown
4.458,-669.25,98,34,2923.15,3080,Unknown
4.458,-672.913,98,34,2923.15,3080,Unknown
4.459,-675.049,98,34.1,2923.15,3080,Unknown
4.459,-679.016,98,34.1,2923.15,3080,Unknown
4.459,-670.166,98,34.1,2923.15,3080,Unknown
4.459,-671.387,98,34.1,2923.15,3080,Unknown
4.46,-670.166,98,34.2,2923.15,3080,Unknown
4.46,-672.607,98,34.2,2923.15,3080,Unknown
4.459,-668.945,98,34.2,2923.15,3080,Unknown
4.459,-668.945,98,34.2,2923.15,3080,Unknown
4.46,-675.964,98,34.3,2923.15,3080,Unknown
4.46,-676.27,98,34.3,2923.15,3080,Unknown
4.46,-671.692,98,34.3,2923.15,3080,Unknown
4.46,-674.133,98,34.3,2923.15,3080,Unknown
4.46,-671.387,98,34.5,2923.15,3080,Unknown
4.46,-670.776,98,34.5,2923.15,3080,Unknown
4.46,-671.997,98,34.5,2923.15,3080,Unknown
4.46,-671.997,98,34.5,2923.15,3080,Unknown
4.46,-672.913,99,34.6,2923.15,3080,Unknown
4.46,-675.659,99,34.6,2923.15,3080,Unknown
4.46,-676.575,99,34.6,2923.15,3080,Unknown
4.46,-668.335,99,34.6,2923.15,3080,Unknown
4.46,-668.03,99,34.8,2923.15,3080,Unknown
4.46,-672.302,99,34.8,2923.15,3080,Unknown
4.46,-675.354,99,34.8,2923.15,3080,Unknown
4.46,-671.692,99,34.8,2923.15,3080,Unknown
4.462,-674.438,99,34.9,2923.15,3080,Unknown
4.462,-671.387,99,34.9,2923.15,3080,Unknown
4.462,-673.523,99,34.9,2923.15,3080,Unknown
4.462,-664.978,99,34.9,2923.15,3080,Unknown
4.46,-671.082,99,35,2923.15,3080,Unknown
4.46,-669.861,99,35,2923.15,3080,Unknown
4.46,-670.776,99,35,2923.15,3080,Unknown
4.46,-674.744,99,35,2923.15,3080,Unknown
4.461,-673.828,99,35.2,2923.15,3080,Unknown
4.461,-670.471,99,35.2,2923.15,3080,Unknown
4.461,-672.913,99,35.2,2923.15,3080,Unknown
4.461,-672.302,99,35.2,2923.15,3080,Unknown
4.462,-674.133,99,35.3,2953.92,3080,Unknown
4.462,-672.913,99,35.3,2953.92,3080,Unknown
4.462,-673.218,99,35.3,2953.92,3080,Unknown
4.462,-671.387,99,35.3,2953.92,3080,Unknown
4.461,-674.744,99,35.4,2953.92,3080,Unknown
4.461,-671.082,99,35.4,2953.92,3080,Unknown
4.461,-674.133,99,35.4,2953.92,3080,Unknown
4.461,-673.828,99,35.4,2953.92,3080,Unknown
4.462,-668.335,99,35.5,2953.92,3080,Unknown
4.463,-670.471,99,35.5,2953.92,3080,Unknown
4.463,-670.166,99,35.5,2953.92,3080,Unknown
4.463,-662.842,99,35.5,2953.92,3080,Unknown
4.464,-667.419,99,35.6,2953.92,3080,Unknown
4.464,-670.166,99,35.6,2953.92,3080,Unknown
4.464,-669.556,99,35.6,2953.92,3080,Unknown
4.464,-670.776,99,35.6,2953.92,3080,Unknown
4.463,-666.809,99,35.7,2953.92,3080,Unknown
4.463,-664.062,99,35.7,2953.92,3080,Unknown
4.463,-657.349,99,35.7,2953.92,3080,Unknown
4.463,-658.264,99,35.7,2953.92,3080,Unknown
4.463,-660.4,99,35.7,2953.92,3080,Unknown
4.463,-661.926,99,35.8,2953.92,3080,Unknown
4.463,-664.673,99,35.8,2953.92,3080,Unknown
4.463,-660.095,99,35.8,2953.92,3080,Unknown
4.463,-658.264,99,35.8,2953.92,3080,Unknown
4.463,-660.095,99,35.8,2953.92,3080,Unknown
4.463,-652.466,99,35.8,2953.92,3080,Unknown
4.463,-656.128,99,35.8,2953.92,3080,Unknown
4.463,-643.616,99,35.9,2953.92,3080,Unknown
4.463,-645.752,99,35.9,2953.92,3080,Unknown
4.463,-648.193,99,35.9,2953.92,3080,Unknown
4.463,-649.719,99,35.9,2953.92,3080,Unknown
4.463,-639.954,99,35.9,2953.92,3080,Unknown
4.462,-630.798,99,35.9,2953.92,3080,Unknown
4.462,-638.733,99,35.9,2953.92,3080,Unknown
4.462,-631.409,99,35.9,2953.92,3080,Unknown
4.462,-638.123,99,35.9,2953.92,3080,Unknown
4.462,-635.071,99,35.9,2953.92,3080,Unknown
4.462,-632.019,99,35.9,2953.92,3080,Unknown
4.462,-628.967,99,35.9,2953.92,3080,Unknown
4.462,-629.883,99,35.9,2953.92,3080,Unknown
4.462,-624.39,99,36,2953.92,3080,Unknown
4.462,-629.578,99,36,2953.92,3080,Unknown
4.462,-625,99,36,2953.92,3080,Unknown
4.462,-623.169,99,36,2953.92,3080,Unknown
4.463,-620.727,99,36,2953.92,3080,Unknown
4.463,-622.559,99,36,2953.92,3080,Unknown
4.463,-618.286,99,36,2953.92,3080,Unknown
4.463,-608.826,99,36,2953.92,3080,Unknown
4.463,-618.286,99,36,2953.92,3080,Unknown
4.463,-610.657,99,36,2953.92,3080,Unknown
4.463,-611.267,99,36,2953.92,3080,Unknown
4.463,-614.319,99,36,2953.92,3080,Unknown
4.462,-613.708,99,36,2984.69,3080,Unknown
4.462,-604.248,99,36,2984.69,3080,Unknown
4.462,-607.605,99,36,2984.69,3080,Unknown
4.462,-608.826,99,36,2984.69,3080,Unknown
4.462,-604.248,99,36,2984.69,3080,Unknown
4.462,-597.534,99,36,2984.69,3080,Unknown
4.462,-601.501,99,36,2984.69,3080,Unknown
4.462,-596.924,99,36,2984.69,3080,Unknown
4.463,-608.826,100,36,2984.69,3080,Unknown
4.463,-600.586,100,36,2984.69,3080,Unknown