File: dataset/pixel_4a-data.csv
timestamp,voltage(V),current(mA),power(W),battery_percent,battery_temperature(Celsius),remaining_battery_charge(mAh),battery_capacity(mAh),battery_technology
2023-04-14 10:44:18.279,3.767,2501,9.4221,1,35.3,61.24,3080,Unknown
2023-04-14 10:44:23.409,3.767,2983,11.2396,1,35.3,61.24,3080,Unknown
2023-04-14 10:44:28.522,3.784,2385,9.02696,1,36.0,61.24,3080,Unknown
2023-04-14 10:44:33.665,3.784,2383,9.02003,1,36.0,61.24,3080,Unknown
2023-04-14 10:44:38.857,3.815,2388,9.11139,2,36.8,61.24,3080,Unknown
2023-04-14 10:44:44.053,3.815,2388,9.11255,2,36.8,61.24,3080,Unknown
2023-04-14 10:44:50.311,3.815,2390,9.11954,2,36.8,61.24,3080,Unknown
2023-04-14 10:45:28.262,3.941,2992,11.7925,3,37.3,91.86,3080,Unknown
2023-04-14 10:45:53.331,3.968,2999,11.9023,3,38.3,122.48,3080,Unknown
2023-04-14 10:46:38.866,3.983,2996,11.9339,5,38.7,153.1,3080,Unknown
2023-04-14 10:47:08.458,3.99,2991,11.9379,6,38.9,183.72,3080,Unknown
2023-04-14 10:47:30.053,3.991,2999,11.9725,7,39.0,183.72,3080,Unknown
2023-04-14 10:47:47.153,3.994,2997,11.9718,7,39.1,214.34,3080,Unknown
2023-04-14 10:47:59.652,3.997,2997,11.982,8,39.2,214.34,3080,Unknown
2023-04-14 10:48:18.479,4.001,2995,11.9854,8,39.3,244.96,3080,Unknown
2023-04-14 10:48:25.739,4.001,2997,11.9927,9,39.4,244.96,3080,Unknown
2023-04-14 10:48:48.728,4.005,294,1.17945,9,39.4,244.96,3080,Unknown
2023-04-14 10:49:02.296,4.007,3001,12.0254,10,39.6,275.58,3080,Unknown
2023-04-14 10:49:19.139,4.011,2999,12.0325,10,39.6,275.58,3080,Unknown
2023-04-14 10:49:52.370,4.019,2996,12.0418,11,39.8,306.2,3080,Unknown
2023-04-14 10:50:04.924,4.02,2996,12.0472,11,40.0,336.82,3080,Unknown
2023-04-14 10:50:23.565,4.022,2996,12.0508,12,40.0,336.82,3080,Unknown
2023-04-14 10:50:30.953,4.025,2998,12.0684,12,40.1,336.82,3080,Unknown
2023-04-14 10:50:59.390,4.028,2995,12.0651,13,40.2,367.44,3080,Unknown
2023-04-14 10:51:19.919,4.033,2392,9.64927,14,40.4,367.44,3080,Unknown
2023-04-14 10:51:33.959,3.982,2388,9.51267,14,40.0,398.06,3080,Unknown
2023-04-14 10:51:58.715,3.983,2391,9.52478,15,39.4,428.68,3080,Unknown
2023-04-14 10:52:18.869,3.984,2390,9.52231,15,39.4,428.68,3080,Unknown
2023-04-14 10:52:35.168,3.987,2389,9.52705,15,39.4,428.68,3080,Unknown
2023-04-14 10:53:00.197,3.99,2391,9.54396,16,39.4,459.3,3080,Unknown
2023-04-14 10:53:17.750,3.993,2394,9.55966,17,39.4,459.3,3080,Unknown
2023-04-14 10:53:26.225,3.993,2394,9.55966,17,39.4,489.92,3080,Unknown
2023-04-14 10:53:59.891,3.999,2392,9.56792,18,39.4,489.92,3080,Unknown
2023-04-14 10:54:19.180,4.001,2392,9.57271,18,39.4,520.54,3080,Unknown
2023-04-14 10:54:40.374,4.003,2391,9.57261,18,39.5,520.54,3080,Unknown
2023-04-14 10:54:51.680,4.005,2392,9.58106,19,39.5,520.54,3080,Unknown
2023-04-14 10:55:10.100,4.006,2394,9.59323,19,39.5,551.16,3080,Unknown
2023-04-14 10:55:42.960,4.011,2392,9.59786,20,39.6,551.16,3080,Unknown
2023-04-14 10:56:08.754,4.014,2391,9.60014,21,39.6,581.78,3080,Unknown
2023-04-14 10:56:33.052,4.017,2391,9.60731,21,39.6,612.4,3080,Unknown
2023-04-14 10:57:00.245,4.02,2390,9.60835,22,39.7,612.4,3080,Unknown
2023-04-14 10:57:35.648,4.024,2391,9.62283,23,39.7,643.02,3080,Unknown
2023-04-14 10:58:00.930,4.027,2392,9.63369,23,39.7,643.02,3080,Unknown
2023-04-14 10:58:27.893,4.03,2392,9.64086,24,39.7,673.64,3080,Unknown
2023-04-14 10:59:00.780,4.033,2390,9.63943,25,39.8,704.26,3080,Unknown
2023-04-14 10:59:05.882,4.033,2392,9.64804,25,39.8,704.26,3080,Unknown
2023-04-14 10:59:11.056,4.033,2394,9.65789,25,39.8,704.26,3080,Unknown
2023-04-14 10:59:16.240,4.033,2394,9.65789,25,39.8,704.26,3080,Unknown
2023-04-14 10:59:21.408,4.033,2391,9.64312,25,39.7,704.26,3080,Unknown
2023-04-14 10:59:26.586,4.033,2395,9.65912,25,39.7,704.26,3080,Unknown
2023-04-14 10:59:42.003,4.037,2392,9.66008,26,39.8,734.88,3080,Unknown
2023-04-14 11:00:17.751,4.039,2393,9.66856,27,39.8,734.88,3080,Unknown
2023-04-14 11:00:57.142,4.043,2393,9.67567,28,40.0,765.5,3080,Unknown
2023-04-14 11:01:02.350,4.043,2386,9.64852,28,40.0,765.5,3080,Unknown
2023-04-14 11:01:07.477,4.043,2388,9.65839,28,40.0,765.5,3080,Unknown
2023-04-14 11:01:12.578,4.043,2394,9.6806,28,40.0,765.5,3080,Unknown
2023-04-14 11:01:17.674,4.009,1936,7.76157,28,40.1,765.5,3080,Unknown
2023-04-14 11:01:22.788,4.007,1932,7.74547,28,40.0,796.12,3080,Unknown
2023-04-14 11:01:27.942,4.007,1936,7.7577,28,40.0,796.12,3080,Unknown
2023-04-14 11:01:47.217,4.005,1940,7.76971,29,39.5,796.12,3080,Unknown
2023-04-14 11:02:17.743,4.006,1939,7.76799,29,39.3,826.74,3080,Unknown
2023-04-14 11:02:39.453,4.006,1939,7.77043,30,39.4,826.74,3080,Unknown
2023-04-14 11:03:14.903,4.009,1936,7.76524,30,39.4,857.36,3080,Unknown
2023-04-14 11:03:34.743,4.01,1942,7.79043,31,39.4,857.36,3080,Unknown
2023-04-14 11:04:02.990,4.012,1936,7.7686,32,39.3,857.36,3080,Unknown
2023-04-14 11:04:30.013,4.05,2394,9.69613,32,39.4,887.98,3080,Unknown
2023-04-14 11:05:06.738,4.057,2391,9.70422,33,40.0,918.6,3080,Unknown
2023-04-14 11:05:38.745,4.063,2390,9.71361,34,40.2,918.6,3080,Unknown
2023-04-14 11:05:58.793,4.064,2395,9.73337,34,40.2,949.22,3080,Unknown
2023-04-14 11:06:35.203,4.068,2393,9.73798,35,40.3,979.84,3080,Unknown
2023-04-14 11:07:17.736,4.073,2394,9.75368,36,40.4,1010.46,3080,Unknown
2023-04-14 11:07:50.337,4.076,2395,9.76211,37,40.5,1010.46,3080,Unknown
2023-04-14 11:08:15.939,4.078,2393,9.75943,37,40.5,1041.08,3080,Unknown
2023-04-14 11:08:52.962,4.081,2395,9.77533,38,40.6,1071.7,3080,Unknown
2023-04-14 11:09:30.541,4.085,2389,9.75997,39,40.7,1102.32,3080,Unknown
2023-04-14 11:09:46.390,4.086,2394,9.78356,40,40.8,1102.32,3080,Unknown
2023-04-14 11:10:21.786,4.09,2394,9.79439,40,40.8,1132.94,3080,Unknown
2023-04-14 11:10:59.343,4.093,2393,9.79533,41,40.9,1132.94,3080,Unknown
2023-04-14 11:11:48.738,4.1,2394,9.81708,43,40.9,1163.56,3080,Unknown
2023-04-14 11:12:16.618,4.103,2395,9.82677,43,41.0,1194.18,3080,Unknown
2023-04-14 11:12:39.494,4.106,2389,9.81265,44,41.0,1224.8,3080,Unknown
2023-04-14 11:12:58.763,4.108,2396,9.84627,44,41.0,1224.8,3080,Unknown
2023-04-14 11:13:18.177,4.11,2389,9.82096,45,41.1,1224.8,3080,Unknown
2023-04-14 11:13:54.640,4.113,2397,9.85951,45,41.2,1255.42,3080,Unknown
2023-04-14 11:14:19.899,4.118,2394,9.86144,46,41.2,1286.04,3080,Unknown
2023-04-14 11:14:58.365,4.121,2392,9.86108,47,41.3,1316.66,3080,Unknown
2023-04-14 11:15:22.245,4.125,2395,9.88324,48,41.3,1316.66,3080,Unknown
2023-04-14 11:15:59.877,4.094,1940,7.94363,48,41.4,1347.28,3080,Unknown
2023-04-14 11:16:23.726,4.093,1940,7.94043,49,41.0,1347.28,3080,Unknown
2023-04-14 11:17:01.731,4.095,1939,7.94306,50,40.7,1377.9,3080,Unknown
2023-04-14 11:17:19.577,4.096,1940,7.94751,50,40.7,1377.9,3080,Unknown
2023-04-14 11:17:58.862,4.1,1941,7.96027,51,40.6,1408.52,3080,Unknown
2023-04-14 11:18:26.432,4.103,1938,7.95357,51,40.6,1408.52,3080,Unknown
2023-04-14 11:18:56.273,4.107,1939,7.96634,52,40.6,1439.14,3080,Unknown
2023-04-14 11:19:01.657,4.107,1938,7.96258,52,40.6,1439.14,3080,Unknown
2023-04-14 11:19:20.146,4.111,1941,7.98163,52,40.6,1439.14,3080,Unknown
2023-04-14 11:19:57.731,4.116,1936,7.97249,53,40.5,1469.76,3080,Unknown
2023-04-14 11:20:17.735,4.117,1936,7.97443,53,40.5,1469.76,3080,Unknown
2023-04-14 11:20:32.888,4.118,1932,7.95752,54,40.5,1469.76,3080,Unknown
2023-04-14 11:20:37.999,4.119,1931,7.95568,54,40.5,1500.38,3080,Unknown
2023-04-14 11:20:43.101,4.119,1937,7.97956,54,40.5,1500.38,3080,Unknown
2023-04-14 11:20:48.225,4.119,1939,7.98962,54,40.5,1500.38,3080,Unknown
2023-04-14 11:20:53.356,4.121,1934,7.97086,54,40.5,1500.38,3080,Unknown
2023-04-14 11:20:58.493,4.121,1934,7.97212,54,40.5,1500.38,3080,Unknown
2023-04-14 11:21:03.581,4.083,1429,5.83517,54,40.7,1500.38,3080,Unknown
2023-04-14 11:21:08.682,4.083,1430,5.84016,54,40.7,1500.38,3080,Unknown
2023-04-14 11:21:13.785,4.083,1429,5.83642,54,40.7,1500.38,3080,Unknown
2023-04-14 11:21:18.893,4.08,1431,5.84209,55,40.3,1500.38,3080,Unknown
2023-04-14 11:21:24.019,4.08,1430,5.83462,55,40.3,1500.38,3080,Unknown
2023-04-14 11:21:29.144,4.079,1431,5.83941,55,40.2,1500.38,3080,Unknown
2023-04-14 11:21:34.262,4.079,1430,5.83693,55,40.2,1500.38,3080,Unknown
2023-04-14 11:21:39.375,4.078,1430,5.83176,55,40.1,1531.0,3080,Unknown
2023-04-14 11:21:44.483,4.078,1430,5.833,55,40.1,1531.0,3080,Unknown
2023-04-14 11:21:49.587,4.078,1430,5.8355,55,40.1,1531.0,3080,Unknown
2023-04-14 11:21:54.679,4.079,1432,5.84315,55,40.0,1531.0,3080,Unknown
2023-04-14 11:21:59.806,4.079,1431,5.83817,55,40.0,1531.0,3080,Unknown
2023-04-14 11:22:04.919,4.079,1431,5.84066,55,40.1,1531.0,3080,Unknown
2023-04-14 11:22:10.028,4.079,1429,5.82946,55,40.1,1531.0,3080,Unknown
2023-04-14 11:22:15.128,4.079,1430,5.83568,55,40.1,1531.0,3080,Unknown
2023-04-14 11:22:20.237,4.08,1432,5.84583,55,40.1,1531.0,3080,Unknown
2023-04-14 11:22:25.335,4.08,1433,5.84707,55,40.1,1531.0,3080,Unknown
2023-04-14 11:22:30.443,4.081,1434,5.85473,56,40.1,1531.0,3080,Unknown
2023-04-14 11:22:35.550,4.081,1430,5.8373,56,40.1,1531.0,3080,Unknown
2023-04-14 11:22:40.670,4.081,1431,5.84103,56,40.1,1531.0,3080,Unknown
2023-04-14 11:22:45.775,4.082,1432,5.84869,56,40.1,1531.0,3080,Unknown
2023-04-14 11:22:50.876,4.082,1430,5.83997,56,40.1,1531.0,3080,Unknown
2023-04-14 11:22:55.971,4.083,1430,5.83891,56,40.1,1561.62,3080,Unknown
2023-04-14 11:23:01.077,4.083,1431,5.84639,56,40.1,1561.62,3080,Unknown
2023-04-14 11:23:06.181,4.083,1435,5.86009,56,40.1,1561.62,3080,Unknown
2023-04-14 11:23:11.290,4.084,1431,5.84782,56,40.1,1561.62,3080,Unknown
2023-04-14 11:23:16.401,4.084,1430,5.84159,56,40.1,1561.62,3080,Unknown
2023-04-14 11:23:21.500,4.085,1432,5.8505,56,40.1,1561.62,3080,Unknown
2023-04-14 11:23:26.606,4.085,1435,5.86421,56,40.1,1561.62,3080,Unknown
2023-04-14 11:23:31.713,4.086,1434,5.85941,57,40.1,1561.62,3080,Unknown
2023-04-14 11:23:36.814,4.086,1432,5.85193,57,40.1,1561.62,3080,Unknown
2023-04-14 11:23:41.914,4.086,1431,5.85068,57,40.1,1561.62,3080,Unknown
2023-04-14 11:23:47.025,4.086,1432,5.85193,57,40.2,1561.62,3080,Unknown
2023-04-14 11:23:52.141,4.086,1433,5.85567,57,40.2,1561.62,3080,Unknown
2023-04-14 11:23:57.246,4.087,1430,5.84713,57,40.2,1561.62,3080,Unknown
2023-04-14 11:24:02.349,4.087,1432,5.85586,57,40.2,1561.62,3080,Unknown
2023-04-14 11:24:07.449,4.087,1430,5.84837,57,40.2,1561.62,3080,Unknown
2023-04-14 11:24:12.554,4.089,1434,5.86496,57,40.2,1592.24,3080,Unknown
2023-04-14 11:24:17.776,4.089,1431,5.85498,57,40.2,1592.24,3080,Unknown
2023-04-14 11:24:36.221,4.092,1432,5.86302,57,40.2,1592.24,3080,Unknown
2023-04-14 11:24:57.669,4.094,1433,5.86714,58,40.2,1592.24,3080,Unknown
2023-04-14 11:25:06.841,4.093,1434,5.86945,58,40.3,1592.24,3080,Unknown
2023-04-14 11:25:27.947,4.096,1434,5.875,58,40.3,1622.86,3080,Unknown
2023-04-14 11:26:01.718,4.098,1434,5.87787,58,40.3,1622.86,3080,Unknown
2023-04-14 11:26:16.625,4.144,1939,8.03558,59,40.4,1622.86,3080,Unknown
2023-04-14 11:26:39.552,4.151,1942,8.06309,59,40.8,1653.48,3080,Unknown
2023-04-14 11:27:04.609,4.156,1937,8.05251,60,40.9,1653.48,3080,Unknown
2023-04-14 11:27:31.820,4.16,1939,8.06914,60,41.0,1684.1,3080,Unknown
2023-04-14 11:28:11.746,4.166,1940,8.08587,61,41.0,1684.1,3080,Unknown
2023-04-14 11:28:16.886,4.168,1941,8.09356,61,41.0,1684.1,3080,Unknown
2023-04-14 11:28:57.308,4.176,1937,8.09126,62,41.0,1714.72,3080,Unknown
2023-04-14 11:29:02.743,4.176,1941,8.10655,62,41.0,1714.72,3080,Unknown
2023-04-14 11:29:20.811,4.179,1938,8.1009,62,41.0,1714.72,3080,Unknown
2023-04-14 11:29:59.886,4.186,1941,8.12724,63,41.0,1745.34,3080,Unknown
2023-04-14 11:30:12.404,4.187,1941,8.1279,63,41.0,1745.34,3080,Unknown
2023-04-14 11:30:32.997,4.189,1938,8.119,63,41.0,1775.96,3080,Unknown
2023-04-14 11:30:39.732,4.191,1941,8.13695,64,41.0,1775.96,3080,Unknown
2023-04-14 11:31:01.871,4.193,1936,8.12164,64,41.0,1775.96,3080,Unknown
2023-04-14 11:31:29.835,4.2,1934,8.123661,64,41.0,1806.58,3080,Unknown
2023-04-14 11:31:35.036,4.2,1936,8.13263,64,41.0,1806.58,3080,Unknown
2023-04-14 11:31:40.165,4.2,1933,8.12238,64,41.0,1806.58,3080,Unknown
2023-04-14 11:31:45.327,4.201,1429,6.00381,65,41.1,1806.58,3080,Unknown
2023-04-14 11:31:50.577,4.201,924,3.88459,65,41.1,1806.58,3080,Unknown
2023-04-14 11:31:55.743,4.12,923,3.80592,65,41.1,1806.58,3080,Unknown
2023-04-14 11:32:00.867,4.12,925,3.81221,65,41.1,1806.58,3080,Unknown
2023-04-14 11:32:05.959,4.12,925,3.81221,65,41.1,1806.58,3080,Unknown
2023-04-14 11:32:11.083,4.117,928,3.82074,65,40.6,1806.58,3080,Unknown
2023-04-14 11:32:16.712,4.114,928,3.82172,65,40.4,1806.58,3080,Unknown
2023-04-14 11:32:31.274,4.112,924,3.80104,65,40.3,1806.58,3080,Unknown
2023-04-14 11:32:43.436,4.112,925,3.80606,65,40.3,1806.58,3080,Unknown
2023-04-14 11:33:00.043,4.112,926,3.81108,66,40.2,1837.2,3080,Unknown
2023-04-14 11:33:14.632,4.113,924,3.80197,66,40.2,1837.2,3080,Unknown
2023-04-14 11:33:24.442,4.113,922,3.79569,66,40.2,1837.2,3080,Unknown
2023-04-14 11:33:29.624,4.113,923,3.79694,66,40.2,1837.2,3080,Unknown
2023-04-14 11:33:34.740,4.114,925,3.80916,66,40.2,1837.2,3080,Unknown
2023-04-14 11:33:39.845,4.114,924,3.80415,66,40.2,1837.2,3080,Unknown
2023-04-14 11:33:44.957,4.114,923,3.79912,66,40.2,1837.2,3080,Unknown
2023-04-14 11:33:50.072,4.114,921,3.79284,66,40.2,1837.2,3080,Unknown
2023-04-14 11:33:55.195,4.114,926,3.81042,66,40.2,1837.2,3080,Unknown
2023-04-14 11:34:00.427,4.115,926,3.81261,66,40.2,1837.2,3080,Unknown
2023-04-14 11:34:05.800,4.115,927,3.81512,66,40.2,1837.2,3080,Unknown
2023-04-14 11:34:17.722,4.117,926,3.8132,66,40.2,1837.2,3080,Unknown
2023-04-14 11:34:34.653,4.117,926,3.81571,66,40.2,1837.2,3080,Unknown
2023-04-14 11:34:39.812,4.118,928,3.82544,66,40.2,1837.2,3080,Unknown
2023-04-14 11:34:47.063,4.118,929,3.82921,66,40.2,1837.2,3080,Unknown
2023-04-14 11:35:01.758,4.121,924,3.81188,67,40.2,1867.82,3080,Unknown
2023-04-14 11:35:06.877,4.121,1433,5.90709,67,40.2,1867.82,3080,Unknown
2023-04-14 11:35:11.990,4.121,1432,5.90457,67,40.2,1867.82,3080,Unknown
2023-04-14 11:35:17.098,4.164,1433,5.96872,67,40.2,1867.82,3080,Unknown
2023-04-14 11:35:22.232,4.164,1434,5.97508,67,40.2,1867.82,3080,Unknown
2023-04-14 11:35:27.345,4.166,1431,5.96269,67,40.4,1867.82,3080,Unknown
2023-04-14 11:35:32.458,4.166,1432,5.96778,67,40.4,1867.82,3080,Unknown
2023-04-14 11:35:37.559,4.166,1431,5.96269,67,40.4,1867.82,3080,Unknown
2023-04-14 11:35:48.681,4.17,927,3.86738,67,40.4,1867.82,3080,Unknown
2023-04-14 11:35:58.484,4.131,928,3.83499,67,40.5,1867.82,3080,Unknown
2023-04-14 11:36:03.870,4.131,927,3.82995,67,40.5,1867.82,3080,Unknown
2023-04-14 11:36:13.162,4.131,927,3.82995,67,40.4,1867.82,3080,Unknown
2023-04-14 11:36:29.260,4.173,1437,5.99691,67,40.2,1898.44,3080,Unknown
2023-04-14 11:36:54.264,4.181,1435,6.00202,68,40.4,1898.44,3080,Unknown
2023-04-14 11:37:06.772,4.183,1435,6.00617,68,40.4,1898.44,3080,Unknown
2023-04-14 11:37:19.307,4.224,1943,8.20746,68,40.3,1898.44,3080,Unknown
2023-04-14 11:37:28.418,4.224,1943,8.21004,68,40.3,1898.44,3080,Unknown
2023-04-14 11:37:40.736,4.234,1940,8.21656,69,40.8,1898.44,3080,Unknown
2023-04-14 11:37:55.071,4.236,1940,8.22173,69,40.9,1929.06,3080,Unknown
2023-04-14 11:38:01.395,4.24,1943,8.24114,69,40.9,1929.06,3080,Unknown
2023-04-14 11:38:06.776,4.24,1940,8.22691,69,40.9,1929.06,3080,Unknown
2023-04-14 11:38:16.845,4.244,1942,8.24374,69,41.0,1929.06,3080,Unknown
2023-04-14 11:38:34.451,4.249,1940,8.24307,69,41.0,1959.68,3080,Unknown
2023-04-14 11:39:00.584,4.254,1945,8.27614,70,41.0,1959.68,3080,Unknown
2023-04-14 11:39:10.740,4.254,1940,8.25667,70,41.0,1959.68,3080,Unknown
2023-04-14 11:39:17.148,4.258,1939,8.25794,70,41.0,1959.68,3080,Unknown
2023-04-14 11:39:37.036,4.261,1940,8.27026,71,41.0,1990.3,3080,Unknown
2023-04-14 11:39:56.825,4.265,1943,8.29104,71,41.0,1990.3,3080,Unknown
2023-04-14 11:40:16.786,4.27,1940,8.28772,71,41.0,1990.3,3080,Unknown
2023-04-14 11:40:27.121,4.272,1941,8.29421,72,41.0,1990.3,3080,Unknown
2023-04-14 11:41:01.744,4.277,1931,8.26215,72,41.0,2020.92,3080,Unknown
2023-04-14 11:41:07.025,4.277,1935,8.27912,72,41.0,2020.92,3080,Unknown
2023-04-14 11:41:12.138,4.277,1942,8.30784,72,41.0,2020.92,3080,Unknown
2023-04-14 11:41:17.263,4.28,1940,8.30452,72,41.0,2020.92,3080,Unknown
2023-04-14 11:41:22.450,4.282,1943,8.32408,73,41.0,2020.92,3080,Unknown
2023-04-14 11:41:27.583,4.282,1430,6.12349,73,41.0,2020.92,3080,Unknown
2023-04-14 11:41:32.715,4.245,1425,6.05115,73,41.2,2051.54,3080,Unknown
2023-04-14 11:41:37.854,4.245,1435,6.0926,73,41.2,2051.54,3080,Unknown
2023-04-14 11:41:43.014,4.245,1433,6.08612,73,41.2,2051.54,3080,Unknown
2023-04-14 11:41:55.916,4.242,1432,6.07794,73,40.9,2051.54,3080,Unknown
2023-04-14 11:42:12.674,4.243,1434,6.08585,73,40.9,2051.54,3080,Unknown
2023-04-14 11:42:20.988,4.243,1431,6.0729,73,40.8,2051.54,3080,Unknown
2023-04-14 11:42:46.013,4.246,1434,6.09274,74,40.8,2082.16,3080,Unknown
2023-04-14 11:43:03.757,4.247,1431,6.08122,74,40.8,2082.16,3080,Unknown
2023-04-14 11:43:26.734,4.297,1942,8.348,74,41.0,2082.16,3080,Unknown
2023-04-14 11:43:47.218,4.302,1943,8.35902,75,41.2,2082.16,3080,Unknown
2023-04-14 11:44:02.153,4.308,1943,8.37068,75,41.3,2112.78,3080,Unknown
2023-04-14 11:44:18.110,4.311,1942,8.3752,75,41.2,2112.78,3080,Unknown
2023-04-14 11:44:26.210,4.314,1944,8.38761,75,41.3,2112.78,3080,Unknown
2023-04-14 11:44:51.222,4.32,1942,8.39136,76,41.2,2143.4,3080,Unknown
2023-04-14 11:45:07.075,4.323,1938,8.37872,76,41.2,2143.4,3080,Unknown
2023-04-14 11:45:28.811,4.329,1943,8.41149,76,41.2,2143.4,3080,Unknown
2023-04-14 11:45:45.372,4.332,1942,8.41335,77,41.2,2174.02,3080,Unknown
2023-04-14 11:46:12.719,4.337,1943,8.42703,77,41.2,2174.02,3080,Unknown
2023-04-14 11:46:20.537,4.339,1943,8.43489,77,41.2,2174.02,3080,Unknown
2023-04-14 11:46:25.943,4.339,1941,8.42429,77,41.2,2174.02,3080,Unknown
2023-04-14 11:46:31.237,4.339,1943,8.43489,77,41.2,2174.02,3080,Unknown
2023-04-14 11:46:36.515,4.343,1944,8.44664,78,41.2,2174.02,3080,Unknown
2023-04-14 11:46:41.699,4.343,1943,8.44001,78,41.2,2174.02,3080,Unknown
2023-04-14 11:46:46.881,4.345,1940,8.43197,78,41.2,2204.64,3080,Unknown
2023-04-14 11:46:52.152,4.345,1940,8.43197,78,41.2,2204.64,3080,Unknown
2023-04-14 11:46:57.325,4.346,1921,8.353,78,41.2,2204.64,3080,Unknown
2023-04-14 11:47:02.476,4.346,1910,8.30128,78,41.2,2204.64,3080,Unknown
2023-04-14 11:47:07.665,4.346,1893,8.22833,78,41.2,2204.64,3080,Unknown
2023-04-14 11:47:12.843,4.346,1874,8.1461,78,41.2,2204.64,3080,Unknown
2023-04-14 11:47:18.116,4.346,1860,8.08642,78,41.2,2204.64,3080,Unknown
2023-04-14 11:47:23.293,4.345,1846,8.02223,79,41.2,2204.64,3080,Unknown
2023-04-14 11:47:28.488,4.345,1832,7.96256,79,41.2,2204.64,3080,Unknown
2023-04-14 11:47:33.670,4.345,1818,7.90157,79,41.2,2204.64,3080,Unknown
2023-04-14 11:47:38.785,4.345,1820,7.90953,79,41.1,2204.64,3080,Unknown
2023-04-14 11:47:43.940,4.345,1794,7.79549,79,41.1,2204.64,3080,Unknown
2023-04-14 11:47:49.105,4.345,1783,7.75041,79,41.0,2235.26,3080,Unknown
2023-04-14 11:47:54.289,4.345,1768,7.68278,79,41.0,2235.26,3080,Unknown
2023-04-14 11:47:59.488,4.343,1753,7.61563,79,41.0,2235.26,3080,Unknown
2023-04-14 11:48:04.682,4.343,1743,7.57189,79,41.0,2235.26,3080,Unknown
2023-04-14 11:48:09.965,4.343,1734,7.53478,79,41.0,2235.26,3080,Unknown
2023-04-14 11:48:15.146,4.344,1712,7.44106,80,40.9,2235.26,3080,Unknown
2023-04-14 11:48:20.330,4.343,1706,7.4102,80,40.9,2235.26,3080,Unknown
2023-04-14 11:48:25.522,4.343,1695,7.3638,80,40.9,2235.26,3080,Unknown
2023-04-14 11:48:30.697,4.343,1687,7.33067,80,40.9,2235.26,3080,Unknown
2023-04-14 11:48:35.883,4.343,1673,7.2697,80,40.9,2235.26,3080,Unknown
2023-04-14 11:48:41.065,4.341,1660,7.20807,80,40.9,2235.26,3080,Unknown
2023-04-14 11:48:46.252,4.341,1650,7.16567,80,40.9,2235.26,3080,Unknown
2023-04-14 11:48:51.439,4.341,1638,7.11268,80,40.8,2265.88,3080,Unknown
2023-04-14 11:48:56.628,4.341,1625,7.05572,80,40.8,2265.88,3080,Unknown
2023-04-14 11:49:01.799,4.341,1616,7.01862,80,40.8,2265.88,3080,Unknown
2023-04-14 11:49:06.983,4.341,1598,6.94046,80,40.8,2265.88,3080,Unknown
2023-04-14 11:49:12.270,4.341,1589,6.89939,80,40.8,2265.88,3080,Unknown
2023-04-14 11:49:17.460,4.339,1579,6.85384,80,40.7,2265.88,3080,Unknown
2023-04-14 11:49:22.653,4.339,1570,6.81279,80,40.7,2265.88,3080,Unknown
2023-04-14 11:49:27.852,4.339,1553,6.74262,81,40.6,2265.88,3080,Unknown
2023-04-14 11:49:33.042,4.339,1537,6.67243,81,40.6,2265.88,3080,Unknown
2023-04-14 11:49:38.238,4.339,1530,6.64065,81,40.6,2265.88,3080,Unknown
2023-04-14 11:49:43.433,4.337,1483,6.43509,81,40.6,2265.88,3080,Unknown
2023-04-14 11:49:48.612,4.337,1487,6.44965,81,40.6,2265.88,3080,Unknown
2023-04-14 11:49:53.784,4.338,1486,6.44981,81,40.6,2296.5,3080,Unknown
2023-04-14 11:49:58.953,4.338,1481,6.42863,81,40.6,2296.5,3080,Unknown
2023-04-14 11:50:04.131,4.338,1485,6.44319,81,40.6,2296.5,3080,Unknown
2023-04-14 11:50:13.660,4.34,1485,6.44881,81,40.5,2296.5,3080,Unknown
2023-04-14 11:50:30.532,4.343,1483,6.44399,81,40.4,2296.5,3080,Unknown
2023-04-14 11:51:00.710,4.346,1487,6.46436,82,40.4,2296.5,3080,Unknown
2023-04-14 11:51:16.929,4.35,1488,6.47429,82,40.4,2327.12,3080,Unknown
2023-04-14 11:51:33.115,4.353,1488,6.47876,82,40.3,2327.12,3080,Unknown
2023-04-14 11:51:42.098,4.353,1483,6.45883,82,40.3,2327.12,3080,Unknown
2023-04-14 11:51:59.142,4.358,1486,6.47955,83,40.2,2327.12,3080,Unknown
2023-04-14 11:52:33.297,4.362,1484,6.47485,83,40.2,2357.74,3080,Unknown
2023-04-14 11:52:41.746,4.364,1486,6.48581,83,40.2,2357.74,3080,Unknown
2023-04-14 11:52:46.884,4.364,1483,6.47249,83,40.2,2357.74,3080,Unknown
2023-04-14 11:53:13.212,4.371,1485,6.49354,84,40.1,2357.74,3080,Unknown
2023-04-14 11:53:18.589,4.372,1487,6.50303,84,40.1,2357.74,3080,Unknown
2023-04-14 11:53:41.145,4.376,1488,6.51299,84,40.1,2388.36,3080,Unknown
2023-04-14 11:53:59.567,4.378,1484,6.50127,84,40.1,2388.36,3080,Unknown
2023-04-14 11:54:12.667,4.38,1489,6.52563,84,40.0,2388.36,3080,Unknown
2023-04-14 11:54:45.131,4.387,1485,6.51865,85,40.0,2388.36,3080,Unknown
2023-04-14 11:54:57.935,4.389,1484,6.51358,85,40.0,2418.98,3080,Unknown
2023-04-14 11:55:14.203,4.391,1484,6.52057,85,39.9,2418.98,3080,Unknown
2023-04-14 11:55:30.951,4.396,1484,6.52666,86,39.8,2418.98,3080,Unknown
2023-04-14 11:55:45.306,4.397,1486,6.53753,86,39.8,2418.98,3080,Unknown
2023-04-14 11:56:00.714,4.4,1486,6.54199,86,39.8,2418.98,3080,Unknown
2023-04-14 11:56:10.801,4.403,1489,6.5572,86,39.8,2449.6,3080,Unknown
2023-04-14 11:56:29.083,4.405,1485,6.54405,86,39.8,2449.6,3080,Unknown
2023-04-14 11:56:34.245,4.407,1483,6.53626,87,39.7,2449.6,3080,Unknown
2023-04-14 11:56:40.084,4.407,1488,6.55913,87,39.7,2449.6,3080,Unknown
2023-04-14 11:56:59.725,4.411,1488,6.56643,87,39.7,2449.6,3080,Unknown
2023-04-14 11:57:23.647,4.416,1487,6.56713,87,39.7,2480.22,3080,Unknown
2023-04-14 11:57:52.393,4.421,1486,6.57187,88,39.7,2480.22,3080,Unknown
2023-04-14 11:58:15.902,4.425,1485,6.57376,88,39.6,2480.22,3080,Unknown
2023-04-14 11:58:30.168,4.427,1485,6.57808,88,39.6,2480.22,3080,Unknown
2023-04-14 11:58:38.760,4.43,1486,6.58525,88,39.6,2510.84,3080,Unknown
2023-04-14 11:58:59.189,4.431,1487,6.59214,88,39.6,2510.84,3080,Unknown
2023-04-14 11:59:17.193,4.435,1481,6.56967,89,39.6,2510.84,3080,Unknown
2023-04-14 11:59:29.874,4.439,1485,6.59456,89,39.6,2510.84,3080,Unknown
2023-04-14 11:59:35.046,4.439,1482,6.57966,89,39.6,2510.84,3080,Unknown
2023-04-14 11:59:41.371,4.441,1488,6.60973,89,39.6,2510.84,3080,Unknown
2023-04-14 12:00:03.832,4.442,1485,6.60037,89,39.5,2541.46,3080,Unknown
2023-04-14 12:00:31.460,4.449,1487,6.61621,90,39.5,2541.46,3080,Unknown
2023-04-14 12:00:36.622,4.449,1485,6.61077,90,39.5,2541.46,3080,Unknown
2023-04-14 12:00:42.765,4.451,1485,6.61239,90,39.5,2541.46,3080,Unknown
2023-04-14 12:00:48.179,4.451,1487,6.61918,90,39.5,2541.46,3080,Unknown
2023-04-14 12:00:53.677,4.451,1484,6.6056,90,39.5,2541.46,3080,Unknown
2023-04-14 12:00:58.960,4.454,1486,6.62228,90,39.5,2541.46,3080,Unknown
2023-04-14 12:01:04.134,4.454,1485,6.6182,90,39.5,2541.46,3080,Unknown
2023-04-14 12:01:09.313,4.455,1485,6.61833,90,39.5,2572.08,3080,Unknown
2023-04-14 12:01:14.492,4.455,1488,6.62921,90,39.5,2572.08,3080,Unknown
2023-04-14 12:01:19.668,4.457,1487,6.6281,90,39.5,2572.08,3080,Unknown
2023-04-14 12:01:24.855,4.458,1488,6.63503,91,39.5,2572.08,3080,Unknown
2023-04-14 12:01:30.040,4.458,1481,6.60646,91,39.5,2572.08,3080,Unknown
2023-04-14 12:01:35.196,4.458,1466,6.5398,91,39.5,2572.08,3080,Unknown
2023-04-14 12:01:40.369,4.458,1457,6.49898,91,39.5,2572.08,3080,Unknown
2023-04-14 12:01:45.541,4.458,1439,6.41736,91,39.5,2572.08,3080,Unknown
2023-04-14 12:01:50.717,4.457,1432,6.38599,91,39.5,2572.08,3080,Unknown
2023-04-14 12:01:55.910,4.457,1424,6.35063,91,39.5,2572.08,3080,Unknown
2023-04-14 12:02:01.062,4.458,1435,6.39831,91,39.5,2572.08,3080,Unknown
2023-04-14 12:02:06.237,4.458,1409,6.28267,91,39.5,2572.08,3080,Unknown
2023-04-14 12:02:11.389,4.458,1399,6.2405,91,39.5,2572.08,3080,Unknown
2023-04-14 12:02:16.562,4.456,1391,6.19962,91,39.4,2572.08,3080,Unknown
2023-04-14 12:02:21.746,4.456,1381,6.1561,91,39.4,2572.08,3080,Unknown
2023-04-14 12:02:26.923,4.456,1369,6.10035,91,39.4,2602.7,3080,Unknown
2023-04-14 12:02:32.124,4.456,1358,6.05411,91,39.4,2602.7,3080,Unknown
2023-04-14 12:02:37.313,4.456,1349,6.01332,91,39.4,2602.7,3080,Unknown
2023-04-14 12:02:42.503,4.455,1341,5.97526,91,39.4,2602.7,3080,Unknown
2023-04-14 12:02:47.701,4.455,1331,5.93039,91,39.4,2602.7,3080,Unknown
2023-04-14 12:02:52.893,4.455,1319,5.88009,92,39.3,2602.7,3080,Unknown
2023-04-14 12:02:58.073,4.455,1313,5.85018,92,39.3,2602.7,3080,Unknown
2023-04-14 12:03:03.249,4.455,1310,5.83658,92,39.3,2602.7,3080,Unknown
2023-04-14 12:03:08.431,4.455,1296,5.77813,92,39.3,2602.7,3080,Unknown
2023-04-14 12:03:13.601,4.455,1288,5.74006,92,39.3,2602.7,3080,Unknown
2023-04-14 12:03:18.782,4.454,1283,5.71702,92,39.2,2602.7,3080,Unknown
2023-04-14 12:03:23.953,4.454,1276,5.68576,92,39.2,2602.7,3080,Unknown
2023-04-14 12:03:29.124,4.454,1268,5.6477,92,39.2,2602.7,3080,Unknown
2023-04-14 12:03:34.294,4.454,1256,5.59469,92,39.2,2602.7,3080,Unknown
2023-04-14 12:03:39.460,4.454,1251,5.57294,92,39.2,2602.7,3080,Unknown
2023-04-14 12:03:44.642,4.454,1239,5.52129,92,39.2,2602.7,3080,Unknown
2023-04-14 12:03:49.818,4.454,1233,5.4941,92,39.2,2602.7,3080,Unknown
2023-04-14 12:03:54.981,4.453,1228,5.46841,92,39.1,2633.32,3080,Unknown
2023-04-14 12:04:00.144,4.453,1225,5.45618,92,39.1,2633.32,3080,Unknown
2023-04-14 12:04:05.310,4.453,1210,5.39231,92,39.1,2633.32,3080,Unknown
2023-04-14 12:04:10.469,4.454,1213,5.40575,92,39.1,2633.32,3080,Unknown
2023-04-14 12:04:15.641,4.454,1199,5.34051,92,39.1,2633.32,3080,Unknown
2023-04-14 12:04:20.804,4.453,1187,5.28631,93,39.1,2633.32,3080,Unknown
2023-04-14 12:04:25.957,4.453,1188,5.29174,93,39.1,2633.32,3080,Unknown
2023-04-14 12:04:31.058,4.452,1183,5.26746,93,39.0,2633.32,3080,Unknown
2023-04-14 12:04:36.158,4.452,1174,5.22942,93,39.0,2633.32,3080,Unknown
2023-04-14 12:04:41.300,4.452,1162,5.17643,93,39.0,2633.32,3080,Unknown
2023-04-14 12:04:46.466,4.452,1163,5.17915,93,39.0,2633.32,3080,Unknown
2023-04-14 12:04:51.604,4.452,1145,5.1017,93,39.0,2633.32,3080,Unknown
2023-04-14 12:04:56.781,4.452,1142,5.08812,93,39.0,2633.32,3080,Unknown
2023-04-14 12:05:01.964,4.452,1141,5.08404,93,39.0,2633.32,3080,Unknown
2023-04-14 12:05:07.154,4.452,1131,5.03785,93,39.0,2633.32,3080,Unknown
2023-04-14 12:05:12.335,4.451,1127,5.01906,93,38.9,2633.32,3080,Unknown
2023-04-14 12:05:17.518,4.452,1122,4.99573,93,38.9,2633.32,3080,Unknown
2023-04-14 12:05:22.687,4.451,1117,4.97288,93,39.0,2663.94,3080,Unknown
2023-04-14 12:05:27.852,4.451,1110,4.94163,93,39.0,2663.94,3080,Unknown
2023-04-14 12:05:33.031,4.451,1100,4.89817,93,39.0,2663.94,3080,Unknown
2023-04-14 12:05:38.211,4.451,1096,4.88187,93,38.9,2663.94,3080,Unknown
2023-04-14 12:05:43.386,4.451,1084,4.82753,93,38.9,2663.94,3080,Unknown
2023-04-14 12:05:48.571,4.451,1081,4.81531,93,38.9,2663.94,3080,Unknown
2023-04-14 12:05:53.766,4.451,1075,4.78678,93,38.9,2663.94,3080,Unknown
2023-04-14 12:05:58.941,4.448,1027,4.57044,94,38.9,2663.94,3080,Unknown
2023-04-14 12:06:04.124,4.448,1030,4.58537,94,38.9,2663.94,3080,Unknown
2023-04-14 12:06:09.314,4.448,1030,4.58266,94,38.9,2663.94,3080,Unknown
2023-04-14 12:06:14.502,4.448,1030,4.58266,94,38.8,2663.94,3080,Unknown
2023-04-14 12:06:19.684,4.449,1028,4.5769,94,38.8,2663.94,3080,Unknown
2023-04-14 12:06:24.867,4.449,1031,4.59048,94,38.8,2663.94,3080,Unknown
2023-04-14 12:06:30.051,4.449,1029,4.58233,94,38.8,2663.94,3080,Unknown
2023-04-14 12:06:35.236,4.449,1029,4.58097,94,38.8,2663.94,3080,Unknown
2023-04-14 12:06:40.415,4.451,1030,4.58575,94,38.8,2663.94,3080,Unknown
2023-04-14 12:06:45.592,4.451,1028,4.57896,94,38.8,2663.94,3080,Unknown
2023-04-14 12:06:50.772,4.452,1028,4.57999,94,38.7,2663.94,3080,Unknown
2023-04-14 12:06:55.944,4.452,1029,4.58406,94,38.7,2663.94,3080,Unknown
2023-04-14 12:07:01.114,4.453,1029,4.58237,94,38.7,2694.56,3080,Unknown
2023-04-14 12:07:06.296,4.453,1029,4.58509,94,38.7,2694.56,3080,Unknown
2023-04-14 12:07:11.466,4.453,1030,4.59053,94,38.7,2694.56,3080,Unknown
2023-04-14 12:07:16.635,4.454,1029,4.58476,94,38.7,2694.56,3080,Unknown
2023-04-14 12:07:21.822,4.454,1031,4.59292,94,38.7,2694.56,3080,Unknown
2023-04-14 12:07:27.116,4.456,1027,4.57866,94,38.7,2694.56,3080,Unknown
2023-04-14 12:07:32.263,4.456,1024,4.5637,94,38.7,2694.56,3080,Unknown
2023-04-14 12:07:37.395,4.456,1027,4.57866,94,38.7,2694.56,3080,Unknown
2023-04-14 12:07:42.638,4.457,1029,4.59057,94,38.7,2694.56,3080,Unknown
2023-04-14 12:07:47.835,4.457,1027,4.57969,94,38.7,2694.56,3080,Unknown
2023-04-14 12:07:53.011,4.459,1030,4.59399,95,38.6,2694.56,3080,Unknown
2023-04-14 12:07:58.203,4.459,1028,4.58583,95,38.6,2694.56,3080,Unknown
2023-04-14 12:08:03.405,4.459,1029,4.58991,95,38.6,2694.56,3080,Unknown
2023-04-14 12:08:08.699,4.459,1027,4.58174,95,38.6,2694.56,3080,Unknown
2023-04-14 12:08:13.891,4.459,1025,4.57086,95,38.6,2694.56,3080,Unknown
2023-04-14 12:08:19.079,4.459,1022,4.55725,95,38.5,2694.56,3080,Unknown
2023-04-14 12:08:24.255,4.459,1017,4.5382,95,38.5,2694.56,3080,Unknown
2023-04-14 12:08:29.449,4.46,1006,4.49022,95,38.5,2694.56,3080,Unknown
2023-04-14 12:08:34.647,4.46,1002,4.4698,95,38.5,2694.56,3080,Unknown
2023-04-14 12:08:39.853,4.46,990,4.41944,95,38.5,2694.56,3080,Unknown
2023-04-14 12:08:45.045,4.459,985,4.39532,95,38.5,2694.56,3080,Unknown
2023-04-14 12:08:50.228,4.459,982,4.38035,95,38.5,2694.56,3080,Unknown
2023-04-14 12:08:55.396,4.458,972,4.33447,95,38.5,2725.18,3080,Unknown
2023-04-14 12:09:00.685,4.458,976,4.35488,95,38.5,2725.18,3080,Unknown
2023-04-14 12:09:05.886,4.458,964,4.30182,95,38.5,2725.18,3080,Unknown
2023-04-14 12:09:11.076,4.458,961,4.28549,95,38.4,2725.18,3080,Unknown
2023-04-14 12:09:16.272,4.458,953,4.25284,95,38.4,2725.18,3080,Unknown
2023-04-14 12:09:21.468,4.459,941,4.19664,95,38.4,2725.18,3080,Unknown
2023-04-14 12:09:26.672,4.459,942,4.20481,95,38.4,2725.18,3080,Unknown
2023-04-14 12:09:31.869,4.458,935,4.16985,95,38.4,2725.18,3080,Unknown
2023-04-14 12:09:37.064,4.458,927,4.13312,95,38.4,2725.18,3080,Unknown
2023-04-14 12:09:42.256,4.458,926,4.12904,95,38.4,2725.18,3080,Unknown
2023-04-14 12:09:47.448,4.458,923,4.11543,95,38.4,2725.18,3080,Unknown
2023-04-14 12:09:52.637,4.458,917,4.08822,95,38.4,2725.18,3080,Unknown
2023-04-14 12:09:57.932,4.458,918,4.09367,96,38.3,2725.18,3080,Unknown
2023-04-14 12:10:03.116,4.458,905,4.03789,96,38.3,2725.18,3080,Unknown
2023-04-14 12:10:08.306,4.458,907,4.04741,96,38.3,2725.18,3080,Unknown
2023-04-14 12:10:13.478,4.457,902,4.02338,96,38.3,2725.18,3080,Unknown
2023-04-14 12:10:18.645,4.458,892,3.98074,96,38.3,2725.18,3080,Unknown
2023-04-14 12:10:23.823,4.458,889,3.96578,96,38.3,2725.18,3080,Unknown
2023-04-14 12:10:28.992,4.458,881,3.93041,96,38.3,2725.18,3080,Unknown
2023-04-14 12:10:34.176,4.457,876,3.9064,96,38.3,2725.18,3080,Unknown
2023-04-14 12:10:39.355,4.457,875,3.90232,96,38.3,2725.18,3080,Unknown
2023-04-14 12:10:44.523,4.457,868,3.86968,96,38.3,2725.18,3080,Unknown
2023-04-14 12:10:49.685,4.457,868,3.8724,96,38.2,2725.18,3080,Unknown
2023-04-14 12:10:54.858,4.457,856,3.81935,96,38.2,2725.18,3080,Unknown
2023-04-14 12:11:00.159,4.456,857,3.82122,96,38.2,2755.8,3080,Unknown
2023-04-14 12:11:05.335,4.456,857,3.82258,96,38.2,2755.8,3080,Unknown
2023-04-14 12:11:10.513,4.456,845,3.76818,96,38.2,2755.8,3080,Unknown
2023-04-14 12:11:15.699,4.457,846,3.77175,96,38.1,2755.8,3080,Unknown
2023-04-14 12:11:20.878,4.456,838,3.73419,96,38.1,2755.8,3080,Unknown
2023-04-14 12:11:26.061,4.457,835,3.7255,96,38.1,2755.8,3080,Unknown
2023-04-14 12:11:31.236,4.457,823,3.6711,96,38.1,2755.8,3080,Unknown
2023-04-14 12:11:36.415,4.456,831,3.70699,96,38.0,2755.8,3080,Unknown
2023-04-14 12:11:41.597,4.456,826,3.68115,96,38.0,2755.8,3080,Unknown
2023-04-14 12:11:46.783,4.456,811,3.61724,96,38.0,2755.8,3080,Unknown
2023-04-14 12:11:51.973,4.456,820,3.65803,96,38.0,2755.8,3080,Unknown
2023-04-14 12:11:57.156,4.456,814,3.62812,96,38.0,2755.8,3080,Unknown
2023-04-14 12:12:02.417,4.456,802,3.57372,97,37.9,2755.8,3080,Unknown
2023-04-14 12:12:07.580,4.456,802,3.5778,97,37.9,2755.8,3080,Unknown
2023-04-14 12:12:12.769,4.456,795,3.54516,97,37.9,2755.8,3080,Unknown
2023-04-14 12:12:17.954,4.456,783,3.49213,97,37.8,2755.8,3080,Unknown
2023-04-14 12:12:23.143,4.456,783,3.49349,97,37.8,2755.8,3080,Unknown
2023-04-14 12:12:28.333,4.455,784,3.49542,97,37.7,2755.8,3080,Unknown
2023-04-14 12:12:33.510,4.455,777,3.4628,97,37.7,2755.8,3080,Unknown
2023-04-14 12:12:38.643,4.455,777,3.46415,97,37.7,2755.8,3080,Unknown
2023-04-14 12:12:43.814,4.454,769,3.42532,97,37.7,2755.8,3080,Unknown
2023-04-14 12:12:48.992,4.454,763,3.40085,97,37.7,2755.8,3080,Unknown
2023-04-14 12:12:54.183,4.455,757,3.37306,97,37.6,2755.8,3080,Unknown
2023-04-14 12:12:59.479,4.455,746,3.32412,97,37.6,2755.8,3080,Unknown
2023-04-14 12:13:04.679,4.455,754,3.36219,97,37.6,2755.8,3080,Unknown
2023-04-14 12:13:09.873,4.456,744,3.31535,97,37.5,2786.42,3080,Unknown
2023-04-14 12:13:15.058,4.456,739,3.29495,97,37.5,2786.42,3080,Unknown
2023-04-14 12:13:20.246,4.455,731,3.2575,97,37.4,2786.42,3080,Unknown
2023-04-14 12:13:25.441,4.455,729,3.2507,97,37.4,2786.42,3080,Unknown
2023-04-14 12:13:30.634,4.449,673,2.99786,97,37.4,2786.42,3080,Unknown
2023-04-14 12:13:35.803,4.449,672,2.99107,97,37.4,2786.42,3080,Unknown
2023-04-14 12:13:40.930,4.449,675,3.00736,97,37.4,2786.42,3080,Unknown
2023-04-14 12:13:46.107,4.45,672,2.99174,97,37.3,2786.42,3080,Unknown
2023-04-14 12:13:51.293,4.45,674,3.00125,97,37.3,2786.42,3080,Unknown
2023-04-14 12:13:56.479,4.45,671,2.98903,97,37.2,2786.42,3080,Unknown
2023-04-14 12:14:01.773,4.45,672,2.99446,97,37.2,2786.42,3080,Unknown
2023-04-14 12:14:06.965,4.45,674,2.99989,97,37.2,2786.42,3080,Unknown
2023-04-14 12:14:12.140,4.451,674,3.00192,97,37.1,2786.42,3080,Unknown
2023-04-14 12:14:17.325,4.452,671,2.99173,97,37.0,2786.42,3080,Unknown
2023-04-14 12:14:22.502,4.452,676,3.01211,98,37.0,2786.42,3080,Unknown
2023-04-14 12:14:27.694,4.452,675,3.00803,98,37.0,2786.42,3080,Unknown
2023-04-14 12:14:32.871,4.452,672,2.99309,98,37.0,2786.42,3080,Unknown
2023-04-14 12:14:38.056,4.452,677,3.01483,98,37.0,2786.42,3080,Unknown
2023-04-14 12:14:43.250,4.452,676,3.01211,98,37.0,2786.42,3080,Unknown
2023-04-14 12:14:48.441,4.453,675,3.00871,98,36.9,2786.42,3080,Unknown
2023-04-14 12:14:53.634,4.453,674,3.00327,98,36.9,2786.42,3080,Unknown
2023-04-14 12:14:58.916,4.454,671,2.99307,98,36.8,2786.42,3080,Unknown
2023-04-14 12:15:04.092,4.454,673,2.99987,98,36.8,2786.42,3080,Unknown
2023-04-14 12:15:09.271,4.454,672,2.99715,98,36.8,2786.42,3080,Unknown
2023-04-14 12:15:14.431,4.455,675,3.00734,98,36.7,2786.42,3080,Unknown
2023-04-14 12:15:19.609,4.455,673,3.0019,98,36.7,2786.42,3080,Unknown
2023-04-14 12:15:24.792,4.456,673,3.00258,98,36.7,2786.42,3080,Unknown
2023-04-14 12:15:29.997,4.456,673,3.00122,98,36.7,2786.42,3080,Unknown
2023-04-14 12:15:35.179,4.456,675,3.00938,98,36.7,2786.42,3080,Unknown
2023-04-14 12:15:40.357,4.457,675,3.01005,98,36.6,2786.42,3080,Unknown
2023-04-14 12:15:45.542,4.457,674,3.00733,98,36.6,2786.42,3080,Unknown
2023-04-14 12:15:50.732,4.458,674,3.00664,98,36.6,2817.04,3080,Unknown
2023-04-14 12:15:55.919,4.458,676,3.01481,98,36.6,2817.04,3080,Unknown
2023-04-14 12:16:01.198,4.459,673,3.00188,98,36.5,2817.04,3080,Unknown
2023-04-14 12:16:06.374,4.459,673,3.00188,98,36.5,2817.04,3080,Unknown
2023-04-14 12:16:11.553,4.459,674,3.00732,98,36.5,2817.04,3080,Unknown
2023-04-14 12:16:16.742,4.46,672,3.00119,98,36.4,2817.04,3080,Unknown
2023-04-14 12:16:21.934,4.46,672,2.99983,98,36.4,2817.04,3080,Unknown
2023-04-14 12:16:27.125,4.46,675,3.01208,98,36.4,2817.04,3080,Unknown
2023-04-14 12:16:32.312,4.46,672,2.99983,98,36.4,2817.04,3080,Unknown
2023-04-14 12:16:37.500,4.46,674,3.00936,98,36.4,2817.04,3080,Unknown
2023-04-14 12:16:42.684,4.461,672,3.00186,98,36.3,2817.04,3080,Unknown
2023-04-14 12:16:47.879,4.461,672,2.99914,98,36.3,2817.04,3080,Unknown
2023-04-14 12:16:53.074,4.462,672,2.99981,98,36.3,2817.04,3080,Unknown
2023-04-14 12:16:58.256,4.462,673,3.00526,98,36.3,2817.04,3080,Unknown
2023-04-14 12:17:03.519,4.463,672,3.00048,98,36.2,2817.04,3080,Unknown
2023-04-14 12:17:08.701,4.463,671,2.99504,98,36.2,2817.04,3080,Unknown
2023-04-14 12:17:13.901,4.463,668,2.98278,98,36.2,2817.04,3080,Unknown
2023-04-14 12:17:19.076,4.463,669,2.98823,99,36.2,2817.04,3080,Unknown
2023-04-14 12:17:24.246,4.463,664,2.9678,99,36.2,2817.04,3080,Unknown
2023-04-14 12:17:29.436,4.463,663,2.96099,99,36.1,2817.04,3080,Unknown
2023-04-14 12:17:34.609,4.463,653,2.9174,99,36.1,2817.04,3080,Unknown
2023-04-14 12:17:39.790,4.463,651,2.90923,99,36.1,2817.04,3080,Unknown
2023-04-14 12:17:44.979,4.463,650,2.90106,99,36.1,2817.04,3080,Unknown
2023-04-14 12:17:50.162,4.463,655,2.92694,99,36.1,2817.04,3080,Unknown
2023-04-14 12:17:55.313,4.463,645,2.87927,99,36.0,2817.04,3080,Unknown
2023-04-14 12:18:00.601,4.463,636,2.84113,99,36.0,2817.04,3080,Unknown
2023-04-14 12:18:05.778,4.463,635,2.83704,99,36.0,2817.04,3080,Unknown
2023-04-14 12:18:10.960,4.463,636,2.84249,99,36.0,2817.04,3080,Unknown
2023-04-14 12:18:16.148,4.463,632,2.8207,99,36.0,2817.04,3080,Unknown
2023-04-14 12:18:21.339,4.462,623,2.78058,99,35.9,2817.04,3080,Unknown
2023-04-14 12:18:26.531,4.462,623,2.7833,99,35.9,2817.04,3080,Unknown
2023-04-14 12:18:31.723,4.462,625,2.79011,99,35.8,2847.66,3080,Unknown
2023-04-14 12:18:36.910,4.462,620,2.76832,99,35.8,2847.66,3080,Unknown
2023-04-14 12:18:42.098,4.462,614,2.74381,99,35.8,2847.66,3080,Unknown
2023-04-14 12:18:47.281,4.462,610,2.72611,99,35.8,2847.66,3080,Unknown
2023-04-14 12:18:52.480,4.462,605,2.7016,99,35.8,2847.66,3080,Unknown
2023-04-14 12:18:57.658,4.462,605,2.70296,99,35.7,2847.66,3080,Unknown
2023-04-14 12:19:02.935,4.462,602,2.68935,99,35.7,2847.66,3080,Unknown
2023-04-14 12:19:08.121,4.462,601,2.68254,99,35.7,2847.66,3080,Unknown
2023-04-14 12:19:13.307,4.462,588,2.62535,99,35.7,2847.66,3080,Unknown
2023-04-14 12:19:18.481,4.462,593,2.64714,99,35.7,2847.66,3080,Unknown
2023-04-14 12:19:23.671,4.463,590,2.63683,99,35.6,2847.66,3080,Unknown
2023-04-14 12:19:28.863,4.463,586,2.61912,99,35.6,2847.66,3080,Unknown
2023-04-14 12:19:34.052,4.461,582,2.60025,99,35.6,2847.66,3080,Unknown
2023-04-14 12:19:39.237,4.461,582,2.59753,99,35.6,2847.66,3080,Unknown
2023-04-14 12:19:44.424,4.461,572,2.55397,99,35.6,2847.66,3080,Unknown
2023-04-14 12:19:49.611,4.462,577,2.57632,99,35.5,2847.66,3080,Unknown
2023-04-14 12:19:54.819,4.462,573,2.55726,99,35.5,2847.66,3080,Unknown
2023-04-14 12:20:00.069,4.462,572,2.55318,99,35.5,2847.66,3080,Unknown
2023-04-14 12:20:05.211,4.462,565,2.52458,99,35.5,2847.66,3080,Unknown
2023-04-14 12:20:10.392,4.462,559,2.49735,99,35.5,2847.66,3080,Unknown
2023-04-14 12:20:15.580,4.462,565,2.52458,99,35.4,2847.66,3080,Unknown
2023-04-14 12:20:20.767,4.462,561,2.50415,99,35.4,2847.66,3080,Unknown
2023-04-14 12:20:25.964,4.461,558,2.4927,99,35.4,2847.66,3080,Unknown
2023-04-14 12:20:31.148,4.461,554,2.47364,99,35.4,2847.66,3080,Unknown
2023-04-14 12:20:36.330,4.461,552,2.46683,99,35.3,2847.66,3080,Unknown
2023-04-14 12:20:41.516,4.461,547,2.44233,99,35.3,2847.66,3080,Unknown
2023-04-14 12:20:46.712,4.461,544,2.42736,99,35.3,2847.66,3080,Unknown
2023-04-14 12:20:51.848,4.46,541,2.41592,100,35.3,2847.66,3080,Unknown
2023-04-14 12:20:57.023,4.46,543,2.42545,100,35.3,2847.66,3080,Unknown
2023-04-14 12:21:02.270,4.461,540,2.40966,100,35.2,2847.66,3080,Unknown
2023-04-14 12:21:07.438,4.461,539,2.40557,100,35.2,2847.66,3080,Unknown
2023-04-14 12:21:12.628,4.461,534,2.38379,100,35.2,2847.66,3080,Unknown
2023-04-14 12:21:17.812,4.46,526,2.34787,100,35.2,2847.66,3080,Unknown
2023-04-14 12:21:22.995,4.46,522,2.33154,100,35.2,2847.66,3080,Unknown
2023-04-14 12:21:28.177,4.461,519,2.31844,100,35.1,2878.28,3080,Unknown
2023-04-14 12:21:33.363,4.461,522,2.32934,100,35.1,2878.28,3080,Unknown
2023-04-14 12:21:38.556,4.461,516,2.30347,100,35.1,2878.28,3080,Unknown
2023-04-14 12:21:43.740,4.461,516,2.30347,100,35.1,2878.28,3080,Unknown
2023-04-14 12:21:48.922,4.453,472,2.10365,100,35.1,2878.28,3080,Unknown
2023-04-14 12:21:54.108,4.456,472,2.10371,100,35.0,2878.28,3080,Unknown
2023-04-14 12:21:59.296,4.456,470,2.09691,100,35.0,2878.28,3080,Unknown
2023-04-14 12:22:21.451,4.457,469,2.09466,100,34.9,2878.28,3080,Unknown
2023-04-14 12:22:52.693,4.458,470,2.09649,100,34.8,2878.28,3080,Unknown
2023-04-14 12:23:15.054,4.459,470,2.09696,100,34.8,2878.28,3080,Unknown
2023-04-14 12:23:31.845,4.459,469,2.09424,100,34.7,2878.28,3080,Unknown
2023-04-14 12:23:51.805,4.46,469,2.09199,100,34.6,2878.28,3080,Unknown
2023-04-14 12:23:55.548,4.46,467,2.08382,100,34.6,2878.28,3080,Unknown