File: dataset/pixel_6a.csv
timestamp,voltage(V),current(mA),power(W),battery_percent,battery_temperature(Celsius),remaining_battery_charge(mAh),battery_capacity(mAh),battery_technology
19:30:08.484,3.314,3786,12.5476,1,34.1,170,4410,Li-ion
19:30:12.652,3.647,3983,14.5276,1,34.1,176,4410,Li-ion
19:30:16.835,3.647,3982,14.523,1,34.1,180,4410,Li-ion
19:30:28.095,3.77,3993,15.0553,1,35.0,192,4410,Li-ion
19:30:32.267,3.77,3915,14.7619,1,35.0,196,4410,Li-ion
19:30:36.417,3.77,3975,14.9869,1,35.0,202,4410,Li-ion
19:30:40.557,3.77,3979,15.0022,1,35.0,206,4410,Li-ion
19:31:03.707,3.883,3984,15.4701,2,37.3,232,4410,Li-ion
19:31:40.136,3.946,3980,15.7063,3,37.9,272,4410,Li-ion
19:32:10.193,3.985,3971,15.8279,4,38.3,306,4410,Li-ion
19:32:52.037,4.02,3982,16.0109,5,38.8,352,4410,Li-ion
19:33:38.048,4.037,3983,16.0799,6,39.3,402,4410,Li-ion
19:34:09.155,4.04,3968,16.0325,7,39.6,436,4410,Li-ion
19:34:59.854,4.049,3986,16.1429,8,40.2,492,4410,Li-ion
19:35:52.013,4.054,3988,16.1679,9,40.7,550,4410,Li-ion
19:36:09.112,4.06,3984,16.1753,10,40.9,570,4410,Li-ion
19:36:25.051,4.062,3980,16.1693,10,41.0,586,4410,Li-ion
19:36:58.287,4.068,3990,16.2326,11,41.4,624,4410,Li-ion
19:37:22.250,4.071,3971,16.1695,12,41.6,650,4410,Li-ion
19:37:27.318,4.071,3967,16.153,12,41.6,656,4410,Li-ion
19:37:31.528,4.071,3974,16.181,12,41.6,660,4410,Li-ion
19:38:18.051,4.036,3381,13.6467,13,41.9,710,4410,Li-ion
19:39:08.046,4.045,3389,13.71,14,42.0,764,4410,Li-ion
19:39:40.657,4.092,3991,16.3348,15,41.5,798,4410,Li-ion
19:40:21.760,4.056,3375,13.6915,16,42.1,840,4410,Li-ion
19:41:06.033,4.102,3983,16.3413,17,41.5,884,4410,Li-ion
19:41:39.059,4.112,3979,16.3645,18,42.4,922,4410,Li-ion
19:41:53.035,4.07,3379,13.7553,18,42.6,934,4410,Li-ion
19:42:28.977,4.118,3988,16.4231,19,42.0,972,4410,Li-ion
19:43:08.056,4.118,3986,16.4167,20,41.6,1010,4410,Li-ion
19:43:56.820,4.123,3977,16.3992,21,41.6,1058,4410,Li-ion
19:44:10.982,4.129,3383,13.9715,21,42.0,1074,4410,Li-ion
19:44:56.829,4.087,3827,15.643,22,41.9,1120,4410,Li-ion
19:45:23.028,4.093,3381,13.842,23,42.2,1144,4410,Li-ion
19:46:05.426,4.101,3378,13.8563,24,42.5,1190,4410,Li-ion
19:46:16.022,4.099,3374,13.8303,24,42.3,1200,4410,Li-ion
19:46:49.366,4.145,3990,16.53855,25,41.6,1232,4410,Li-ion
19:47:59.560,4.107,3384,13.9009,27,41.9,1300,4410,Li-ion
19:48:08.137,4.149,3975,16.4962,27,41.8,1310,4410,Li-ion
19:48:24.901,4.155,3389,14.0841,27,42.1,1328,4410,Li-ion
19:48:45.228,4.111,3390,13.9401,28,42.2,1346,4410,Li-ion
19:48:56.660,4.111,3381,13.9029,28,42.2,1356,4410,Li-ion
19:49:39.081,4.113,3387,13.9315,29,42.1,1396,4410,Li-ion
19:50:35.694,4.12,3372,13.8947,30,42.2,1450,4410,Li-ion
19:51:09.124,4.12,3382,13.9346,31,42.2,1482,4410,Li-ion
19:52:08.083,4.126,3383,13.9601,32,42.4,1536,4410,Li-ion
19:52:17.092,4.125,3390,13.9863,32,42.4,1546,4410,Li-ion
19:52:54.799,4.129,3372,13.9251,33,42.4,1580,4410,Li-ion
19:53:40.842,4.134,3381,13.9781,34,42.6,1624,4410,Li-ion
19:54:34.230,4.063,2456,9.98101,35,42.0,1668,4410,Li-ion
19:55:39.059,4.06,2442,9.91655,36,41.1,1712,4410,Li-ion
19:55:46.423,4.06,2464,10.0054,36,41.1,1716,4410,Li-ion
19:56:39.144,4.063,2448,9.94927,37,40.8,1752,4410,Li-ion
19:57:39.101,4.068,2451,9.97295,38,40.5,1794,4410,Li-ion
19:58:39.159,4.07,2452,9.98168,39,40.3,1834,4410,Li-ion
19:59:16.159,4.075,2450,9.98502,39,40.3,1860,4410,Li-ion
19:59:53.561,4.077,2459,10.0281,40,40.2,1886,4410,Li-ion
20:00:49.029,4.077,2452,10.0001,41,40.0,1922,4410,Li-ion
20:01:38.056,4.086,2455,10.0324,42,39.8,1956,4410,Li-ion
20:01:56.338,4.175,3723,15.5453,42,40.3,1974,4410,Li-ion
20:02:00.942,4.175,3677,15.3523,42,40.3,1980,4410,Li-ion
20:02:05.534,4.175,3662,15.2896,42,40.3,1984,4410,Li-ion
20:02:09.909,4.185,3620,15.1523,42,41.1,1988,4410,Li-ion
20:02:14.104,4.185,3611,15.1157,42,41.1,1992,4410,Li-ion
20:02:18.479,4.185,3596,15.0503,42,41.1,1998,4410,Li-ion
20:02:22.655,4.185,3582,14.9915,42,41.1,2002,4410,Li-ion
20:02:26.860,4.183,3568,14.9281,43,41.6,2006,4410,Li-ion
20:02:31.242,4.183,3557,14.8823,43,41.6,2010,4410,Li-ion
20:02:35.427,4.183,3544,14.8274,43,41.6,2014,4410,Li-ion
20:02:39.629,4.183,3527,14.7568,43,41.7,2018,4410,Li-ion
20:02:43.818,4.183,3523,14.7398,43,41.7,2022,4410,Li-ion
20:02:47.962,4.183,3520,14.7268,43,41.7,2026,4410,Li-ion
20:02:52.124,4.183,3510,14.6862,43,41.7,2030,4410,Li-ion
20:02:56.404,4.183,3504,14.6588,43,41.7,2034,4410,Li-ion
20:03:00.564,4.183,3477,14.5464,43,41.7,2038,4410,Li-ion
20:03:04.727,4.183,3490,14.59867,43,41.7,2042,4410,Li-ion
20:03:08.977,4.186,3482,14.5791,44,41.9,2046,4410,Li-ion
20:03:13.198,4.186,3462,14.494,44,41.9,2050,4410,Li-ion
20:03:17.394,4.186,3385,14.1735,44,41.9,2054,4410,Li-ion
20:03:21.547,4.186,3370,14.10682,44,41.9,2058,4410,Li-ion
20:03:25.685,4.18,3387,14.1584,44,42.0,2062,4410,Li-ion
20:03:29.842,4.18,3378,14.1232,44,42.0,2066,4410,Li-ion
20:03:33.995,4.18,3383,14.1441,44,42.0,2070,4410,Li-ion
20:03:47.098,4.182,3368,14.0855,45,42.0,2082,4410,Li-ion
20:04:06.351,4.182,3379,14.1312,45,42.0,2100,4410,Li-ion
20:04:17.808,4.185,3351,14.025,45,42.1,2112,4410,Li-ion
20:04:27.443,4.185,3360,14.0629,45,42.1,2120,4410,Li-ion
20:04:32.241,4.185,3343,13.9936,45,42.1,2126,4410,Li-ion
20:04:36.628,4.185,3341,13.9831,45,42.1,2130,4410,Li-ion
20:04:41.002,4.185,3337,13.9661,45,42.1,2134,4410,Li-ion
20:04:45.213,4.185,3315,13.8746,45,42.1,2138,4410,Li-ion
20:04:49.589,4.185,3316,13.8811,45,42.1,2142,4410,Li-ion
20:04:53.731,4.185,3312,13.8615,45,42.1,2146,4410,Li-ion
20:04:57.935,4.185,3303,13.8249,46,42.2,2148,4410,Li-ion
20:05:02.322,4.185,3303,13.8236,46,42.2,2154,4410,Li-ion
20:05:06.483,4.185,3292,13.7791,46,42.2,2156,4410,Li-ion
20:05:10.663,4.184,2458,10.2874,46,42.3,2160,4410,Li-ion
20:05:14.849,4.184,2453,10.2639,46,42.3,2162,4410,Li-ion
20:05:19.010,4.184,2446,10.2377,46,42.3,2166,4410,Li-ion
20:05:23.184,4.184,2453,10.2639,46,42.3,2168,4410,Li-ion
20:05:27.436,4.122,2460,10.144,47,42.0,2172,4410,Li-ion
20:05:53.667,4.122,2445,10.0796,47,42.0,2190,4410,Li-ion
20:05:59.226,4.118,2454,10.1084,47,41.2,2194,4410,Li-ion
20:06:58.348,4.122,2449,10.095,48,41.0,2234,4410,Li-ion
20:08:00.047,4.124,2458,10.1386,49,41.0,2276,4410,Li-ion
20:08:32.809,4.128,2455,10.13424,49,40.8,2298,4410,Li-ion
20:08:36.976,4.128,2457,10.1458,49,40.8,2300,4410,Li-ion
20:08:45.993,4.13,2447,10.1069,50,40.8,2306,4410,Li-ion
20:08:50.134,4.13,2446,10.1043,50,40.8,2310,4410,Li-ion
20:08:54.245,4.13,2467,10.1908,50,40.8,2312,4410,Li-ion
20:09:04.817,4.132,2447,10.1131,50,40.6,2320,4410,Li-ion
20:09:42.050,4.137,2443,10.1098,51,40.3,2346,4410,Li-ion
20:10:01.049,4.137,2457,10.1654,51,40.3,2358,4410,Li-ion
20:11:09.125,4.146,2445,10.13697,52,39.7,2404,4410,Li-ion
20:11:57.077,4.152,2454,10.1919,53,39.6,2438,4410,Li-ion
20:12:25.029,4.154,2883,11.9778,53,39.6,2458,4410,Li-ion
20:12:29.619,4.186,2987,12.5057,53,39.6,2462,4410,Li-ion
20:13:09.070,4.205,2983,12.544,54,40.2,2494,4410,Li-ion
20:14:38.059,4.22,2984,12.5954,56,40.5,2568,4410,Li-ion
20:15:38.051,4.23,2993,12.6609,57,40.6,2618,4410,Li-ion
20:16:38.054,4.238,2976,12.616,58,40.6,2668,4410,Li-ion
20:16:47.108,4.239,2980,12.6362,58,40.6,2674,4410,Li-ion
20:18:01.065,4.252,2979,12.667,60,40.8,2736,4410,Li-ion
20:18:53.060,4.26,2985,12.7188,61,40.8,2778,4410,Li-ion
20:19:45.051,4.269,2995,12.7857,62,41.0,2822,4410,Li-ion
20:20:39.103,4.277,2974,12.7201,63,41.0,2866,4410,Li-ion
20:21:37.050,4.286,2953,12.6571,64,41.0,2914,4410,Li-ion
20:21:41.657,4.286,2930,12.5607,64,41.0,2918,4410,Li-ion
20:21:46.199,4.286,2920,12.5178,64,41.0,2922,4410,Li-ion
20:21:50.576,4.286,2924,12.5339,64,41.0,2926,4410,Li-ion
20:21:54.960,4.287,2895,12.4149,64,41.0,2930,4410,Li-ion
20:21:59.132,4.287,2890,12.3921,64,41.0,2932,4410,Li-ion
20:22:03.506,4.287,2879,12.3439,64,41.0,2936,4410,Li-ion
20:22:07.703,4.287,2868,12.2957,64,41.0,2940,4410,Li-ion
20:22:11.900,4.287,2872,12.3131,64,41.0,2944,4410,Li-ion
20:22:16.296,4.287,2858,12.2541,64,41.0,2946,4410,Li-ion
20:22:20.490,4.287,2851,12.2233,64,41.0,2950,4410,Li-ion
20:22:24.698,4.285,2838,12.1614,65,41.0,2954,4410,Li-ion
20:22:28.917,4.285,2841,12.1761,65,41.0,2956,4410,Li-ion
20:22:33.103,4.285,2828,12.1212,65,41.0,2960,4410,Li-ion
20:22:37.283,4.285,2835,12.1507,65,41.0,2964,4410,Li-ion
20:22:41.639,4.285,2815,12.0663,65,41.0,2966,4410,Li-ion
20:22:45.807,4.285,2811,12.0475,65,41.0,2970,4410,Li-ion
20:22:49.995,4.286,2797,11.9887,65,40.9,2974,4410,Li-ion
20:22:54.162,4.286,2797,11.9901,65,40.9,2976,4410,Li-ion
20:22:58.333,4.286,2774,11.8923,65,40.9,2980,4410,Li-ion
20:23:02.486,4.286,2760,11.8294,65,40.9,2982,4410,Li-ion
20:23:06.682,4.286,2760,11.8294,65,40.9,2986,4410,Li-ion
20:23:10.864,4.286,2748,11.7811,65,40.8,2990,4410,Li-ion
20:23:15.060,4.286,2746,11.7731,65,40.8,2992,4410,Li-ion
20:23:19.340,4.286,2742,11.7557,66,40.8,2996,4410,Li-ion
20:23:23.764,4.286,2732,11.7102,66,40.8,3000,4410,Li-ion
20:23:27.948,4.286,2724,11.678,66,40.8,3002,4410,Li-ion
20:23:32.132,4.286,2732,11.7102,66,40.8,3006,4410,Li-ion
20:23:36.309,4.286,2704,11.591,66,40.8,3008,4410,Li-ion
20:23:40.492,4.286,2718,11.6499,66,40.8,3012,4410,Li-ion
20:23:44.656,4.288,2690,11.5387,66,40.7,3014,4410,Li-ion
20:23:48.855,4.288,2694,11.5548,66,40.7,3018,4410,Li-ion
20:23:53.097,4.288,2684,11.5119,66,40.7,3020,4410,Li-ion
20:23:57.264,4.288,2660,11.4088,66,40.7,3024,4410,Li-ion
20:24:01.396,4.288,2661,11.4128,66,40.7,3028,4410,Li-ion
20:24:05.815,4.288,2646,11.3485,66,40.7,3030,4410,Li-ion
20:24:10.015,4.287,2658,11.3954,66,40.6,3034,4410,Li-ion
20:24:14.185,4.287,2632,11.2869,66,40.6,3036,4410,Li-ion
20:24:18.417,4.287,2632,11.2869,67,40.6,3040,4410,Li-ion
20:24:22.572,4.287,2628,11.2695,67,40.6,3042,4410,Li-ion
20:24:26.737,4.287,2607,11.1797,67,40.6,3046,4410,Li-ion
20:24:30.908,4.287,2614,11.2065,67,40.6,3048,4410,Li-ion
20:24:35.084,4.287,2602,11.1556,67,40.6,3052,4410,Li-ion
20:24:39.233,4.287,2617,11.2212,67,40.6,3054,4410,Li-ion
20:24:43.391,4.287,2585,11.0859,67,40.5,3058,4410,Li-ion
20:24:47.584,4.287,2588,11.0966,67,40.5,3060,4410,Li-ion
20:24:51.764,4.287,2562,10.9868,67,40.5,3064,4410,Li-ion
20:24:55.947,4.287,2554,10.9519,67,40.5,3066,4410,Li-ion
20:25:00.125,4.287,2531,10.8528,67,40.5,3070,4410,Li-ion
20:25:04.307,4.287,2550,10.9359,67,40.5,3072,4410,Li-ion
20:25:08.716,4.287,2560,10.9774,67,40.4,3076,4410,Li-ion
20:25:12.869,4.287,2535,10.8689,67,40.4,3078,4410,Li-ion
20:25:17.049,4.287,2533,10.8622,68,40.5,3082,4410,Li-ion
20:25:21.239,4.287,2525,10.8287,68,40.5,3084,4410,Li-ion
20:25:25.396,4.287,2507,10.7497,68,40.5,3088,4410,Li-ion
20:25:29.572,4.287,2515,10.7845,68,40.5,3090,4410,Li-ion
20:25:33.771,4.287,2495,10.6961,68,40.5,3094,4410,Li-ion
20:25:37.960,4.287,2494,10.692,68,40.5,3096,4410,Li-ion
20:25:42.116,4.287,2487,10.6626,68,40.5,3100,4410,Li-ion
20:25:46.280,4.286,2460,10.54356,68,40.6,3102,4410,Li-ion
20:25:50.684,4.286,2466,10.5717,68,40.6,3106,4410,Li-ion
20:25:54.862,4.286,2455,10.5248,68,40.6,3108,4410,Li-ion
20:25:59.039,4.286,2462,10.5529,68,40.6,3110,4410,Li-ion
20:26:03.267,4.286,2449,10.4994,68,40.6,3114,4410,Li-ion
20:26:07.443,4.286,2427,10.4029,68,40.6,3116,4410,Li-ion
20:26:11.619,4.287,2429,10.4147,68,40.6,3120,4410,Li-ion
20:26:15.782,4.287,2423,10.3893,68,40.6,3122,4410,Li-ion
20:26:19.980,4.287,2429,10.4134,69,40.5,3124,4410,Li-ion
20:26:24.137,4.287,2430,10.4187,69,40.5,3128,4410,Li-ion
20:26:28.306,4.287,2401,10.2968,69,40.5,3130,4410,Li-ion
20:26:32.590,4.287,2403,10.3022,69,40.5,3134,4410,Li-ion
20:26:36.732,4.287,2388,10.2392,69,40.5,3136,4410,Li-ion
20:26:40.917,4.287,2380,10.2071,69,40.5,3138,4410,Li-ion
20:26:45.080,4.287,2379,10.199,69,40.5,3142,4410,Li-ion
20:26:49.263,4.288,2382,10.2175,69,40.4,3144,4410,Li-ion
20:26:53.437,4.288,2365,10.14112,69,40.4,3148,4410,Li-ion
20:26:57.629,4.288,2376,10.18936,69,40.4,3150,4410,Li-ion
20:27:01.815,4.288,2348,10.0688,69,40.4,3152,4410,Li-ion
20:27:05.995,4.288,2344,10.054,69,40.4,3156,4410,Li-ion
20:27:10.155,4.289,2347,10.0698,69,40.3,3158,4410,Li-ion
20:27:14.341,4.289,2324,9.97058,69,40.3,3160,4410,Li-ion
20:27:18.529,4.289,2306,9.89419,69,40.3,3164,4410,Li-ion
20:27:22.613,4.289,2293,9.83521,69,40.3,3166,4410,Li-ion
20:27:26.753,4.289,2300,9.86604,69,40.3,3168,4410,Li-ion
20:27:30.959,4.289,2289,9.81913,69,40.3,3172,4410,Li-ion
20:27:35.147,4.289,2310,9.91027,69,40.3,3174,4410,Li-ion
20:27:39.328,4.289,2287,9.80975,69,40.3,3176,4410,Li-ion
20:27:43.784,4.289,2274,9.75613,69,40.3,3180,4410,Li-ion
20:27:47.979,4.289,2256,9.67706,69,40.3,3182,4410,Li-ion
20:27:52.164,4.289,2263,9.70654,70,40.1,3186,4410,Li-ion
20:27:56.371,4.288,2260,9.69356,70,40.1,3188,4410,Li-ion
20:28:00.548,4.288,2262,9.7016,70,40.1,3190,4410,Li-ion
20:28:04.732,4.288,2248,9.63996,70,40.1,3192,4410,Li-ion
20:28:08.940,4.287,2244,9.62297,70,40.1,3196,4410,Li-ion
20:28:13.145,4.287,2245,9.62432,70,40.1,3198,4410,Li-ion
20:28:17.359,4.287,2232,9.57073,70,40.1,3200,4410,Li-ion
20:28:21.554,4.287,2227,9.54795,70,40.1,3204,4410,Li-ion
20:28:25.954,4.287,2215,9.49704,70,40.1,3206,4410,Li-ion
20:28:30.145,4.287,2203,9.4448,70,40.1,3208,4410,Li-ion
20:28:34.337,4.287,2204,9.45016,70,40.1,3212,4410,Li-ion
20:28:38.525,4.287,2199,9.43006,70,40.1,3214,4410,Li-ion
20:28:42.700,4.287,2188,9.38183,70,40.1,3216,4410,Li-ion
20:28:46.891,4.287,2170,9.30279,70,40.1,3218,4410,Li-ion
20:28:51.077,4.287,2159,9.2559,70,40.1,3222,4410,Li-ion
20:28:55.263,4.287,2160,9.25992,70,40.1,3224,4410,Li-ion
20:28:59.458,4.289,2163,9.27764,71,39.9,3226,4410,Li-ion
20:29:03.879,4.289,2142,9.18784,71,39.9,3230,4410,Li-ion
20:29:08.058,4.288,2150,9.22322,71,39.9,3232,4410,Li-ion
20:29:12.232,4.289,2110,9.04979,71,39.9,3234,4410,Li-ion
20:29:16.396,4.289,2117,9.0833,71,39.9,3236,4410,Li-ion
20:29:20.572,4.289,2136,9.16371,71,39.9,3238,4410,Li-ion
20:29:24.719,4.289,2117,9.08196,71,39.9,3242,4410,Li-ion
20:29:28.883,4.289,2111,9.05783,71,39.9,3244,4410,Li-ion
20:29:33.072,4.289,2120,9.09536,71,39.9,3246,4410,Li-ion
20:29:37.250,4.289,2122,9.1034,71,39.9,3248,4410,Li-ion
20:29:41.427,4.289,2121,9.10072,71,39.9,3252,4410,Li-ion
20:30:01.088,4.294,2146,9.216,72,39.6,3262,4410,Li-ion
20:31:08.084,4.304,2114,9.09892,73,39.3,3302,4410,Li-ion
20:32:08.079,4.312,2123,9.15626,73,39.1,3338,4410,Li-ion
20:32:57.035,4.318,2136,9.22567,74,38.9,3366,4410,Li-ion
20:33:39.118,4.328,2127,9.20647,75,38.8,3392,4410,Li-ion
20:34:15.086,4.332,2119,9.18248,75,38.6,3412,4410,Li-ion
20:35:08.054,4.343,2125,9.23159,76,38.5,3444,4410,Li-ion
20:36:09.231,4.353,2122,9.23788,77,38.3,3480,4410,Li-ion
20:37:09.051,4.362,2123,9.26107,78,38.2,3516,4410,Li-ion
20:38:38.063,4.377,2103,9.20811,79,38.0,3568,4410,Li-ion
20:39:38.058,4.386,2119,9.29558,80,37.9,3602,4410,Li-ion
20:40:17.955,4.393,2122,9.32551,80,37.8,3626,4410,Li-ion
20:40:22.148,4.393,2122,9.32551,80,37.8,3628,4410,Li-ion
20:41:09.174,4.404,2111,9.29932,81,37.7,3656,4410,Li-ion
20:42:09.178,4.414,2124,9.37699,82,37.7,3692,4410,Li-ion
20:43:01.112,4.417,2119,9.3599,82,37.6,3722,4410,Li-ion
20:43:50.099,4.429,2099,9.29813,83,37.6,3752,4410,Li-ion
20:44:50.163,4.428,1979,8.76329,84,37.4,3786,4410,Li-ion
20:45:14.026,4.43,1937,8.58174,84,37.3,3798,4410,Li-ion
20:45:21.404,4.43,1915,8.48622,84,37.3,3802,4410,Li-ion
20:46:08.117,4.428,1866,8.263755,85,37.1,3826,4410,Li-ion
20:47:08.058,4.43,1772,7.85217,85,37.0,3858,4410,Li-ion
20:47:12.178,4.43,1750,7.7525,85,37.0,3860,4410,Li-ion
20:47:16.359,4.43,1758,7.78988,85,37.0,3862,4410,Li-ion
20:47:20.507,4.43,1763,7.81064,85,37.0,3864,4410,Li-ion
20:47:24.667,4.43,1745,7.73312,85,37.0,3866,4410,Li-ion
20:47:28.807,4.43,1743,7.72343,85,37.0,3868,4410,Li-ion
20:47:32.939,4.43,1727,7.652825,85,37.0,3870,4410,Li-ion
20:47:37.091,4.43,1733,7.67913,85,37.0,3872,4410,Li-ion
20:47:41.266,4.43,1719,7.61821,86,36.8,3874,4410,Li-ion
20:47:45.401,4.43,1718,7.61129,86,36.8,3876,4410,Li-ion
20:47:49.556,4.43,1714,7.59606,86,36.8,3878,4410,Li-ion
20:47:53.720,4.43,1709,7.57253,86,36.8,3880,4410,Li-ion
20:47:57.859,4.43,1712,7.58637,86,36.8,3882,4410,Li-ion
20:48:02.017,4.429,1683,7.45456,86,36.8,3884,4410,Li-ion
20:48:06.199,4.429,1690,7.48501,86,36.8,3884,4410,Li-ion
20:48:10.368,4.431,1674,7.41916,86,36.8,3886,4410,Li-ion
20:48:14.543,4.431,1676,7.43023,86,36.8,3888,4410,Li-ion
20:48:18.698,4.431,1669,7.397,86,36.8,3890,4410,Li-ion
20:48:22.864,4.431,1659,7.35269,86,36.8,3892,4410,Li-ion
20:48:27.009,4.431,1658,7.34853,86,36.8,3894,4410,Li-ion
20:48:31.160,4.431,1661,7.36377,86,36.8,3896,4410,Li-ion
20:48:35.332,4.431,1650,7.31392,86,36.8,3898,4410,Li-ion
20:48:39.597,4.431,1636,7.25022,86,36.8,3900,4410,Li-ion
20:48:43.739,4.431,1635,7.24469,86,36.8,3902,4410,Li-ion
20:48:47.887,4.431,1635,7.24607,86,36.8,3904,4410,Li-ion
20:48:52.036,4.431,1624,7.19761,86,36.8,3906,4410,Li-ion
20:48:56.203,4.431,1618,7.17129,86,36.8,3908,4410,Li-ion
20:49:00.344,4.431,1608,7.12698,87,36.7,3910,4410,Li-ion
20:49:04.511,4.431,1617,7.16714,87,36.7,3912,4410,Li-ion
20:49:08.667,4.431,1601,7.09791,87,36.6,3914,4410,Li-ion
20:49:12.820,4.431,1600,7.09237,87,36.6,3916,4410,Li-ion
20:49:16.951,4.431,1585,7.0259,87,36.6,3918,4410,Li-ion
20:49:21.086,4.431,1595,7.0716,87,36.6,3920,4410,Li-ion
20:49:25.227,4.431,1590,7.04529,87,36.6,3920,4410,Li-ion
20:49:29.363,4.431,1571,6.96359,87,36.6,3922,4410,Li-ion
20:49:33.508,4.431,1573,6.97052,87,36.6,3924,4410,Li-ion
20:49:37.669,4.43,1570,6.95925,87,36.5,3926,4410,Li-ion
20:49:41.815,4.43,1564,6.93018,87,36.5,3928,4410,Li-ion
20:49:45.954,4.43,1547,6.855425,87,36.5,3930,4410,Li-ion
20:49:50.080,4.43,1555,6.89003,87,36.5,3932,4410,Li-ion
20:49:54.231,4.43,1546,6.84989,87,36.5,3934,4410,Li-ion
20:49:58.368,4.43,1535,6.80282,87,36.5,3936,4410,Li-ion
20:50:02.501,4.43,1538,6.81666,87,36.5,3938,4410,Li-ion
20:50:06.651,4.43,1534,6.79866,87,36.5,3938,4410,Li-ion
20:50:10.793,4.432,1531,6.7865,87,36.4,3940,4410,Li-ion
20:50:14.932,4.432,1520,6.73941,87,36.4,3942,4410,Li-ion
20:50:19.119,4.432,1515,6.71863,87,36.4,3944,4410,Li-ion
20:50:23.256,4.432,1521,6.74495,87,36.4,3946,4410,Li-ion
20:50:27.415,4.432,1502,6.65908,87,36.4,3948,4410,Li-ion
20:50:31.573,4.432,1494,6.62168,87,36.4,3950,4410,Li-ion
20:50:35.732,4.432,1496,6.63138,87,36.4,3952,4410,Li-ion
20:50:39.867,4.431,1493,6.61604,88,36.3,3952,4410,Li-ion
20:50:44.009,4.431,1486,6.58834,88,36.3,3954,4410,Li-ion
20:50:48.147,4.431,1502,6.65619,88,36.3,3956,4410,Li-ion
20:50:52.318,4.431,1479,6.55649,88,36.3,3958,4410,Li-ion
20:50:56.467,4.431,1477,6.54818,88,36.3,3960,4410,Li-ion
20:51:00.620,4.431,1475,6.53849,88,36.3,3962,4410,Li-ion
20:51:04.764,4.431,1463,6.48449,88,36.3,3964,4410,Li-ion
20:51:08.948,4.432,1453,6.44302,88,36.3,3964,4410,Li-ion
20:51:13.101,4.432,1460,6.47072,88,36.3,3966,4410,Li-ion
20:51:17.264,4.431,1464,6.49003,88,36.2,3968,4410,Li-ion
20:51:21.390,4.431,1445,6.40556,88,36.2,3970,4410,Li-ion
20:51:25.536,4.431,1446,6.4111,88,36.2,3972,4410,Li-ion
20:51:29.679,4.431,1451,6.43049,88,36.2,3974,4410,Li-ion
20:51:33.819,4.431,1454,6.44295,88,36.2,3974,4410,Li-ion
20:51:37.969,4.431,1418,6.28509,88,36.2,3976,4410,Li-ion
20:51:42.156,4.431,1438,6.37371,88,36.2,3978,4410,Li-ion
20:51:46.345,4.431,1415,6.27263,88,36.2,3980,4410,Li-ion
20:51:50.507,4.431,1422,6.30448,88,36.2,3982,4410,Li-ion
20:51:54.676,4.431,1403,6.21725,88,36.2,3984,4410,Li-ion
20:51:58.851,4.431,1427,6.32663,88,36.2,3984,4410,Li-ion
20:52:02.980,4.431,1402,6.21448,88,36.2,3986,4410,Li-ion
20:52:07.148,4.431,1395,6.18125,88,36.2,3988,4410,Li-ion
20:52:11.311,4.431,1400,6.20617,88,36.1,3990,4410,Li-ion
20:52:15.444,4.431,1389,6.1577,88,36.1,3992,4410,Li-ion
20:52:19.582,4.431,1387,6.14663,89,36.1,3992,4410,Li-ion
20:52:23.745,4.431,1374,6.08847,89,36.1,3994,4410,Li-ion
20:52:27.907,4.431,1368,6.06354,89,36.1,3996,4410,Li-ion
20:52:32.089,4.431,1375,6.09678,89,36.1,3998,4410,Li-ion
20:52:36.259,4.431,1362,6.03862,89,36.1,4000,4410,Li-ion
20:52:40.428,4.431,1350,5.986,89,36.1,4000,4410,Li-ion
20:52:44.587,4.431,1353,5.99847,89,36.1,4002,4410,Li-ion
20:52:48.782,4.431,1357,6.0137,89,36.1,4004,4410,Li-ion
20:52:52.991,4.431,1348,5.97492,89,36.1,4006,4410,Li-ion
20:52:57.130,4.431,1336,5.92369,89,36.1,4006,4410,Li-ion
20:53:01.271,4.431,1337,5.92646,89,36.1,4008,4410,Li-ion
20:53:05.428,4.431,1325,5.87246,89,36.1,4010,4410,Li-ion
20:53:09.579,4.431,1325,5.871075,89,36.0,4012,4410,Li-ion
20:53:13.719,4.431,1321,5.85446,89,36.0,4014,4410,Li-ion
20:53:17.860,4.431,1321,5.85723,89,36.0,4014,4410,Li-ion
20:53:22.015,4.431,1319,5.84476,89,36.0,4016,4410,Li-ion
20:53:26.177,4.431,1326,5.87938,89,36.0,4018,4410,Li-ion
20:53:30.323,4.431,1312,5.81569,89,36.0,4020,4410,Li-ion
20:53:34.475,4.431,1303,5.77415,89,36.0,4020,4410,Li-ion
20:53:38.660,4.431,1313,5.81846,89,36.0,4022,4410,Li-ion
20:53:42.816,4.431,1301,5.76722,89,36.0,4024,4410,Li-ion
20:53:46.946,4.431,1291,5.72153,89,36.0,4026,4410,Li-ion
20:53:51.095,4.431,1293,5.72984,89,36.0,4026,4410,Li-ion
20:53:55.244,4.431,1286,5.70076,89,36.0,4028,4410,Li-ion
20:53:59.385,4.431,1289,5.7146,89,36.0,4030,4410,Li-ion
20:54:03.544,4.431,1284,5.68968,89,36.0,4032,4410,Li-ion
20:54:07.692,4.431,1278,5.66337,89,36.0,4032,4410,Li-ion
20:54:11.851,4.431,1278,5.66614,90,35.8,4034,4410,Li-ion
20:54:16.015,4.431,1278,5.66475,90,35.8,4036,4410,Li-ion
20:54:20.155,4.431,1251,5.54706,90,35.8,4038,4410,Li-ion
20:54:24.304,4.431,1264,5.60106,90,35.8,4038,4410,Li-ion
20:54:28.475,4.431,1250,5.53875,90,35.8,4040,4410,Li-ion
20:54:32.625,4.431,1254,5.55675,90,35.8,4042,4410,Li-ion
20:54:36.798,4.431,1250,5.53875,90,35.8,4042,4410,Li-ion
20:54:40.968,4.431,1239,5.49028,90,35.8,4044,4410,Li-ion
20:54:45.117,4.431,1244,5.51383,90,35.8,4046,4410,Li-ion
20:54:49.240,4.431,1239,5.49305,90,35.8,4048,4410,Li-ion
20:54:53.380,4.431,1225,5.42798,90,35.8,4048,4410,Li-ion
20:54:57.525,4.431,1233,5.46398,90,35.8,4050,4410,Li-ion
20:55:01.672,4.431,1220,5.40997,90,35.8,4052,4410,Li-ion
20:55:05.832,4.431,1225,5.43074,90,35.8,4052,4410,Li-ion
20:55:10.060,4.434,1225,5.4358,90,35.7,4054,4410,Li-ion
20:55:14.205,4.434,1228,5.44689,90,35.7,4056,4410,Li-ion
20:55:18.343,4.434,1216,5.39285,90,35.7,4058,4410,Li-ion
20:55:22.511,4.434,1201,5.32773,90,35.7,4058,4410,Li-ion
20:55:26.671,4.434,1196,5.30556,90,35.7,4060,4410,Li-ion
20:55:30.822,4.434,1214,5.38315,90,35.7,4062,4410,Li-ion
20:55:34.983,4.434,1186,5.26122,90,35.7,4062,4410,Li-ion
20:55:39.147,4.434,1190,5.27923,90,35.7,4064,4410,Li-ion
20:55:43.303,4.434,1183,5.24598,90,35.7,4066,4410,Li-ion
20:55:47.439,4.434,1176,5.21826,90,35.7,4066,4410,Li-ion
20:55:51.602,4.434,1160,5.14759,90,35.7,4068,4410,Li-ion
20:55:55.767,4.434,1170,5.19055,90,35.7,4070,4410,Li-ion
20:55:59.929,4.434,1174,5.20718,90,35.7,4070,4410,Li-ion
20:56:04.066,4.434,1171,5.19471,90,35.7,4072,4410,Li-ion
20:56:08.224,4.431,1164,5.15796,90,35.5,4074,4410,Li-ion
20:56:12.379,4.431,1161,5.1455,90,35.5,4074,4410,Li-ion
20:56:16.535,4.431,1155,5.12057,90,35.5,4076,4410,Li-ion
20:56:20.676,4.431,1161,5.1455,90,35.5,4078,4410,Li-ion
20:56:24.856,4.431,1135,5.03057,90,35.5,4080,4410,Li-ion
20:56:28.994,4.431,1146,5.08042,90,35.5,4080,4410,Li-ion
20:56:33.154,4.431,1143,5.06796,90,35.5,4082,4410,Li-ion
20:56:37.316,4.431,1148,5.08734,90,35.5,4082,4410,Li-ion
20:56:41.472,4.431,1148,5.09011,90,35.5,4084,4410,Li-ion
20:56:45.636,4.433,1120,4.96911,91,35.4,4086,4410,Li-ion
20:56:49.790,4.433,1121,4.97188,91,35.4,4086,4410,Li-ion
20:56:53.959,4.433,1115,4.94695,91,35.4,4088,4410,Li-ion
20:56:58.132,4.433,1122,4.97465,91,35.4,4090,4410,Li-ion
20:57:02.299,4.433,1113,4.93725,91,35.4,4090,4410,Li-ion
20:57:06.436,4.433,1111,4.92617,91,35.4,4092,4410,Li-ion
20:57:10.583,4.432,1115,4.94306,91,35.4,4094,4410,Li-ion
20:57:14.751,4.432,1106,4.90567,91,35.4,4094,4410,Li-ion
20:57:18.911,4.432,1103,4.88905,91,35.4,4096,4410,Li-ion
20:57:23.055,4.432,1116,4.94999,91,35.4,4098,4410,Li-ion
20:57:27.205,4.432,1104,4.89459,91,35.3,4098,4410,Li-ion
20:57:31.331,4.432,1105,4.89736,91,35.3,4100,4410,Li-ion
20:57:35.493,4.432,1104,4.89597,91,35.3,4102,4410,Li-ion
20:57:39.656,4.432,1084,4.80595,91,35.3,4102,4410,Li-ion
20:57:43.794,4.432,1084,4.80595,91,35.3,4104,4410,Li-ion
20:57:47.946,4.432,1079,4.78379,91,35.3,4104,4410,Li-ion
20:57:52.121,4.432,1073,4.75886,91,35.3,4106,4410,Li-ion
20:57:56.285,4.432,1085,4.81149,91,35.3,4108,4410,Li-ion
20:58:00.424,4.432,1080,4.79071,91,35.3,4108,4410,Li-ion
20:58:04.609,4.432,1073,4.75886,91,35.3,4110,4410,Li-ion
20:58:08.771,4.431,1073,4.75779,91,35.2,4112,4410,Li-ion
20:58:12.910,4.431,1074,4.76056,91,35.2,4112,4410,Li-ion
20:58:17.063,4.431,1071,4.74809,91,35.2,4114,4410,Li-ion
20:58:21.204,4.431,1057,4.6844,91,35.2,4114,4410,Li-ion
20:58:25.364,4.431,1061,4.70517,91,35.2,4116,4410,Li-ion
20:58:29.508,4.431,1057,4.68578,91,35.2,4118,4410,Li-ion
20:58:33.667,4.431,1045,4.63455,91,35.2,4118,4410,Li-ion
20:58:37.807,4.431,1041,4.61516,91,35.2,4120,4410,Li-ion
20:58:41.951,4.431,1045,4.630395,91,35.2,4120,4410,Li-ion
20:58:46.093,4.431,1038,4.6027,91,35.2,4122,4410,Li-ion
20:58:50.247,4.431,1045,4.63455,91,35.2,4124,4410,Li-ion
20:58:54.403,4.431,1037,4.59716,91,35.2,4124,4410,Li-ion
20:58:58.537,4.431,1025,4.54454,92,35.1,4126,4410,Li-ion
20:59:02.688,4.431,1028,4.55562,92,35.1,4126,4410,Li-ion
20:59:06.848,4.431,1028,4.55562,92,35.1,4128,4410,Li-ion
20:59:11.058,4.433,1021,4.5272,92,35.1,4130,4410,Li-ion
20:59:15.231,4.433,1015,4.50227,92,35.1,4130,4410,Li-ion
20:59:19.384,4.433,1027,4.55352,92,35.1,4132,4410,Li-ion
20:59:23.544,4.433,1009,4.47594,92,35.1,4132,4410,Li-ion
20:59:27.688,4.433,1015,4.50365,92,35.1,4134,4410,Li-ion
20:59:31.840,4.433,1005,4.45516,92,35.1,4136,4410,Li-ion
20:59:35.993,4.433,1018,4.51473,92,35.1,4136,4410,Li-ion
20:59:40.143,4.433,1005,4.45655,92,35.1,4138,4410,Li-ion
20:59:44.276,4.433,1001,4.43992,92,35.1,4138,4410,Li-ion
20:59:48.428,4.433,998,4.42746,92,35.1,4140,4410,Li-ion
20:59:52.577,4.433,1000,4.43715,92,35.1,4140,4410,Li-ion
20:59:56.730,4.433,978,4.33741,92,34.9,4142,4410,Li-ion
21:00:00.899,4.433,974,4.32079,92,34.9,4144,4410,Li-ion
21:00:05.058,4.433,969,4.29862,92,34.9,4144,4410,Li-ion
21:00:09.218,4.432,976,4.32812,92,35.0,4146,4410,Li-ion
21:00:13.363,4.432,980,4.34336,92,35.0,4146,4410,Li-ion
21:00:17.520,4.432,968,4.29073,92,35.0,4148,4410,Li-ion
21:00:21.674,4.432,968,4.2935,92,35.0,4148,4410,Li-ion
21:00:25.827,4.432,966,4.28519,92,35.0,4150,4410,Li-ion
21:00:29.950,4.432,984,4.36413,92,35.0,4152,4410,Li-ion
21:00:34.136,4.432,959,4.25195,92,35.0,4152,4410,Li-ion
21:00:38.311,4.432,969,4.29488,92,35.0,4154,4410,Li-ion
21:00:42.438,4.432,953,4.22702,92,35.0,4154,4410,Li-ion
21:00:46.587,4.432,961,4.26026,92,35.0,4156,4410,Li-ion
21:00:50.768,4.432,957,4.24502,92,35.0,4156,4410,Li-ion
21:00:54.964,4.432,937,4.15638,92,35.0,4158,4410,Li-ion
21:00:59.106,4.432,940,4.16746,92,35.0,4158,4410,Li-ion
21:01:03.251,4.432,951,4.21871,92,35.0,4160,4410,Li-ion
21:01:07.405,4.432,956,4.2381,92,35.0,4162,4410,Li-ion
21:01:11.555,4.432,944,4.18685,92,34.6,4162,4410,Li-ion
21:01:15.692,4.432,929,4.1176,92,34.6,4164,4410,Li-ion
21:01:19.844,4.432,939,4.16469,92,34.6,4164,4410,Li-ion
21:01:23.976,4.432,940,4.16746,92,34.6,4166,4410,Li-ion
21:01:28.136,4.431,926,4.10698,93,34.6,4166,4410,Li-ion
21:01:32.288,4.431,925,4.10283,93,34.6,4168,4410,Li-ion
21:01:36.417,4.431,909,4.02805,93,34.6,4168,4410,Li-ion
21:01:40.572,4.431,920,4.08067,93,34.6,4170,4410,Li-ion
21:01:44.720,4.431,922,4.08898,93,34.6,4170,4410,Li-ion
21:01:48.871,4.431,918,4.07098,93,34.6,4172,4410,Li-ion
21:01:53.020,4.431,914,4.0516,93,34.6,4172,4410,Li-ion
21:01:57.148,4.431,897,3.9782,93,34.6,4174,4410,Li-ion
21:02:01.291,4.431,917,4.06406,93,34.6,4174,4410,Li-ion
21:02:05.439,4.431,905,4.01144,93,34.6,4176,4410,Li-ion
21:02:09.601,4.433,908,4.0271,93,34.3,4176,4410,Li-ion
21:02:13.740,4.433,893,3.96061,93,34.3,4178,4410,Li-ion
21:02:17.901,4.433,901,3.99662,93,34.3,4180,4410,Li-ion
21:02:22.037,4.433,892,3.95645,93,34.3,4180,4410,Li-ion
21:02:26.191,4.433,890,3.94814,93,34.3,4182,4410,Li-ion
21:02:30.323,4.433,890,3.94814,93,34.3,4182,4410,Li-ion
21:02:34.473,4.433,872,3.86779,93,34.3,4184,4410,Li-ion
21:02:38.604,4.433,886,3.93152,93,34.3,4184,4410,Li-ion
21:02:42.744,4.432,892,3.95417,93,34.2,4186,4410,Li-ion
21:02:46.871,4.432,873,3.87107,93,34.2,4186,4410,Li-ion
21:02:51.005,4.432,878,3.89185,93,34.2,4188,4410,Li-ion
21:02:55.177,4.432,871,3.86415,93,34.2,4188,4410,Li-ion
21:02:59.316,4.432,890,3.94586,93,34.2,4190,4410,Li-ion
21:03:03.460,4.432,873,3.87246,93,34.2,4190,4410,Li-ion
21:03:07.617,4.432,876,3.88492,93,34.2,4192,4410,Li-ion
21:03:11.759,4.433,872,3.86779,93,34.1,4192,4410,Li-ion
21:03:15.887,4.433,868,3.85117,93,34.1,4194,4410,Li-ion
21:03:20.020,4.433,871,3.86225,93,34.1,4194,4410,Li-ion
21:03:24.150,4.433,837,3.71125,93,34.1,4196,4410,Li-ion
21:03:28.301,4.433,855,3.790215,93,34.1,4196,4410,Li-ion
21:03:32.444,4.433,847,3.75835,93,34.1,4198,4410,Li-ion
21:03:36.588,4.433,851,3.77497,93,34.1,4198,4410,Li-ion
21:03:40.772,4.433,846,3.7542,93,34.1,4200,4410,Li-ion
21:03:44.909,4.433,840,3.7251,93,34.1,4200,4410,Li-ion
21:03:49.047,4.433,835,3.70571,93,34.1,4202,4410,Li-ion
21:03:53.200,4.433,844,3.74173,93,34.1,4202,4410,Li-ion
21:03:57.324,4.433,828,3.67385,93,34.1,4204,4410,Li-ion
21:04:01.485,4.433,834,3.70017,93,34.1,4204,4410,Li-ion
21:04:05.643,4.433,829,3.67523,93,34.1,4204,4410,Li-ion
21:04:09.792,4.433,829,3.67523,93,33.8,4206,4410,Li-ion
21:04:13.945,4.434,828,3.67329,94,33.8,4206,4410,Li-ion
21:04:18.097,4.434,812,3.60401,94,33.8,4208,4410,Li-ion
21:04:22.238,4.434,829,3.67745,94,33.8,4208,4410,Li-ion
21:04:26.378,4.434,822,3.64835,94,33.8,4210,4410,Li-ion
21:04:30.524,4.434,840,3.72594,94,33.8,4210,4410,Li-ion
21:04:34.669,4.434,814,3.61232,94,33.8,4212,4410,Li-ion
21:04:38.820,4.434,809,3.58738,94,33.8,4212,4410,Li-ion
21:04:42.959,4.434,815,3.61509,94,33.8,4214,4410,Li-ion
21:04:47.124,4.434,795,3.5278,94,33.8,4214,4410,Li-ion
21:04:51.267,4.434,811,3.59985,94,33.8,4216,4410,Li-ion
21:04:55.396,4.434,813,3.6054,94,33.8,4216,4410,Li-ion
21:04:59.526,4.434,793,3.51949,94,33.8,4218,4410,Li-ion
21:05:03.658,4.434,811,3.59847,94,33.8,4218,4410,Li-ion
21:05:07.817,4.434,794,3.52087,94,33.8,4220,4410,Li-ion
21:05:11.951,4.433,800,3.54917,94,33.4,4220,4410,Li-ion
21:05:16.080,4.433,790,3.50207,94,33.4,4220,4410,Li-ion
21:05:20.232,4.433,782,3.46743,94,33.4,4222,4410,Li-ion
21:05:24.380,4.433,785,3.48129,94,33.4,4222,4410,Li-ion
21:05:28.504,4.433,784,3.47575,94,33.4,4224,4410,Li-ion
21:05:32.627,4.433,789,3.4993,94,33.4,4224,4410,Li-ion
21:05:36.777,4.433,783,3.47298,94,33.4,4226,4410,Li-ion
21:05:40.918,4.433,777,3.44804,94,33.4,4226,4410,Li-ion
21:05:45.073,4.433,769,3.41202,94,33.4,4228,4410,Li-ion
21:05:49.211,4.434,775,3.43635,94,33.3,4228,4410,Li-ion
21:05:53.345,4.434,768,3.40587,94,33.3,4228,4410,Li-ion
21:05:57.480,4.434,758,3.36291,94,33.3,4230,4410,Li-ion
21:06:01.635,4.434,770,3.41418,94,33.3,4230,4410,Li-ion
21:06:05.767,4.434,763,3.38647,94,33.3,4232,4410,Li-ion
21:06:09.912,4.433,767,3.40094,94,33.3,4232,4410,Li-ion
21:06:14.033,4.433,756,3.35384,94,33.3,4234,4410,Li-ion
21:06:18.166,4.433,765,3.39263,94,33.3,4234,4410,Li-ion
21:06:22.296,4.433,750,3.32613,94,33.3,4236,4410,Li-ion
21:06:26.455,4.433,752,3.33583,94,33.3,4236,4410,Li-ion
21:06:30.612,4.433,735,3.26103,94,33.3,4236,4410,Li-ion
21:06:34.753,4.433,757,3.35661,94,33.3,4238,4410,Li-ion
21:06:38.893,4.433,747,3.31228,94,33.3,4238,4410,Li-ion
21:06:43.044,4.433,754,3.34553,94,33.3,4240,4410,Li-ion
21:06:47.183,4.433,754,3.34414,94,33.3,4240,4410,Li-ion
21:06:51.323,4.433,745,3.30397,94,33.3,4242,4410,Li-ion
21:06:55.470,4.433,760,3.37046,94,33.3,4242,4410,Li-ion
21:06:59.602,4.433,733,3.25271,94,33.3,4242,4410,Li-ion
21:07:03.751,4.433,729,3.2347,94,33.3,4244,4410,Li-ion
21:07:07.932,4.435,734,3.25834,94,33.0,4244,4410,Li-ion
21:07:12.076,4.435,736,3.26527,94,33.0,4246,4410,Li-ion
21:07:16.210,4.435,722,3.20567,94,33.0,4246,4410,Li-ion
21:07:20.359,4.435,733,3.25418,94,33.0,4248,4410,Li-ion
21:07:24.499,4.435,731,3.24587,94,33.0,4248,4410,Li-ion
21:07:28.641,4.435,730,3.24171,94,33.0,4248,4410,Li-ion
21:07:32.775,4.435,715,3.17518,94,33.0,4250,4410,Li-ion
21:07:36.937,4.435,710,3.14885,94,33.0,4250,4410,Li-ion
21:07:41.078,4.435,712,3.15855,94,33.0,4252,4410,Li-ion
21:07:45.213,4.435,715,3.17102,94,33.0,4252,4410,Li-ion
21:07:49.369,4.435,717,3.18211,94,33.0,4252,4410,Li-ion
21:07:53.481,4.434,705,3.12874,95,33.0,4254,4410,Li-ion
21:07:57.650,4.434,704,3.12458,95,33.0,4254,4410,Li-ion
21:08:01.813,4.434,710,3.14952,95,33.0,4256,4410,Li-ion
21:08:05.972,4.434,693,3.0747,95,33.0,4256,4410,Li-ion
21:08:10.129,4.434,705,3.12874,95,32.9,4256,4410,Li-ion
21:08:14.278,4.434,709,3.14537,95,32.9,4258,4410,Li-ion
21:08:18.418,4.434,701,3.11073,95,32.9,4258,4410,Li-ion
21:08:22.565,4.434,698,3.09687,95,32.9,4260,4410,Li-ion
21:08:26.723,4.434,715,3.17031,95,32.9,4260,4410,Li-ion
21:08:30.875,4.434,694,3.07886,95,32.9,4262,4410,Li-ion
21:08:35.038,4.434,690,3.06084,95,32.9,4262,4410,Li-ion
21:08:39.199,4.434,689,3.0553,95,32.9,4262,4410,Li-ion
21:08:43.336,4.434,686,3.04422,95,32.9,4264,4410,Li-ion
21:08:47.459,4.434,682,3.02759,95,32.9,4264,4410,Li-ion
21:08:51.618,4.434,695,3.08301,95,32.9,4266,4410,Li-ion
21:08:55.768,4.434,675,2.9971,95,32.9,4266,4410,Li-ion
21:08:59.896,4.434,670,2.97493,95,32.9,4266,4410,Li-ion
21:09:04.036,4.434,683,3.03036,95,32.9,4268,4410,Li-ion
21:09:08.168,4.434,669,2.96662,95,32.8,4268,4410,Li-ion
21:09:12.309,4.434,678,3.00681,95,32.8,4268,4410,Li-ion
21:09:16.437,4.434,681,3.02205,95,32.8,4270,4410,Li-ion
21:09:20.595,4.434,661,2.93198,95,32.8,4270,4410,Li-ion
21:09:24.747,4.432,680,3.01653,95,32.8,4272,4410,Li-ion
21:09:28.886,4.432,678,3.00822,95,32.8,4272,4410,Li-ion
21:09:33.019,4.432,670,2.96944,95,32.8,4272,4410,Li-ion
21:09:37.184,4.432,673,2.98467,95,32.8,4274,4410,Li-ion
21:09:41.315,4.432,658,2.91681,95,32.8,4274,4410,Li-ion
21:09:45.456,4.432,668,2.96113,95,32.8,4276,4410,Li-ion
21:09:49.614,4.432,673,2.98329,95,32.8,4276,4410,Li-ion
21:09:53.765,4.432,660,2.92512,95,32.8,4276,4410,Li-ion
21:09:57.912,4.432,654,2.90157,95,32.8,4278,4410,Li-ion
21:10:02.055,4.432,666,2.9542,95,32.8,4278,4410,Li-ion
21:10:06.206,4.432,653,2.89603,95,32.8,4278,4410,Li-ion
21:10:10.348,4.432,657,2.91542,95,32.8,4280,4410,Li-ion
21:10:14.479,4.432,653,2.89603,95,32.8,4280,4410,Li-ion
21:10:18.626,4.432,656,2.90988,95,32.8,4282,4410,Li-ion
21:10:22.793,4.432,648,2.87526,95,32.8,4282,4410,Li-ion
21:10:26.937,4.432,658,2.91681,95,32.8,4282,4410,Li-ion
21:10:31.087,4.432,644,2.85587,95,32.8,4284,4410,Li-ion
21:10:35.229,4.432,639,2.83371,95,32.8,4284,4410,Li-ion
21:10:39.381,4.432,641,2.8434,95,32.8,4284,4410,Li-ion
21:10:43.512,4.432,647,2.86972,95,32.8,4286,4410,Li-ion
21:10:47.657,4.432,642,2.84756,95,32.8,4286,4410,Li-ion
21:10:51.787,4.432,640,2.83648,95,32.8,4288,4410,Li-ion
21:10:55.952,4.432,634,2.81293,95,32.8,4288,4410,Li-ion
21:11:00.105,4.432,621,2.75338,95,32.8,4288,4410,Li-ion
21:11:04.254,4.432,628,2.78523,95,32.8,4290,4410,Li-ion
21:11:08.419,4.433,630,2.79417,95,32.7,4290,4410,Li-ion
21:11:12.560,4.433,636,2.8205,95,32.7,4290,4410,Li-ion
21:11:16.695,4.433,636,2.82188,95,32.7,4292,4410,Li-ion
21:11:20.838,4.433,628,2.78448,95,32.7,4292,4410,Li-ion
21:11:24.997,4.433,629,2.78863,95,32.7,4292,4410,Li-ion
21:11:29.153,4.434,610,2.70889,96,32.8,4294,4410,Li-ion
21:11:33.281,4.434,628,2.78649,96,32.8,4294,4410,Li-ion
21:11:37.433,4.434,611,2.71305,96,32.8,4296,4410,Li-ion
21:11:41.587,4.434,617,2.73661,96,32.8,4296,4410,Li-ion
21:11:45.724,4.434,611,2.71028,96,32.8,4296,4410,Li-ion
21:11:49.860,4.434,619,2.74769,96,32.8,4298,4410,Li-ion
21:11:54.012,4.434,617,2.737995,96,32.8,4298,4410,Li-ion
21:11:58.173,4.434,621,2.75739,96,32.8,4298,4410,Li-ion
21:12:02.324,4.434,611,2.71305,96,32.8,4300,4410,Li-ion
21:12:06.465,4.434,600,2.66317,96,32.8,4300,4410,Li-ion
21:12:10.620,4.434,605,2.68257,96,32.8,4300,4410,Li-ion
21:12:14.763,4.434,589,2.6119,96,32.8,4302,4410,Li-ion
21:12:18.912,4.434,611,2.71167,96,32.8,4302,4410,Li-ion
21:12:23.060,4.434,603,2.67426,96,32.8,4302,4410,Li-ion
21:12:27.207,4.434,600,2.6604,96,32.8,4304,4410,Li-ion
21:12:31.373,4.434,598,2.65347,96,32.8,4304,4410,Li-ion
21:12:35.531,4.434,600,2.66317,96,32.8,4304,4410,Li-ion
21:12:39.665,4.434,585,2.59804,96,32.8,4306,4410,Li-ion
21:12:43.803,4.434,608,2.6992,96,32.8,4306,4410,Li-ion
21:12:47.956,4.434,598,2.65209,96,32.8,4308,4410,Li-ion
21:12:52.102,4.434,590,2.61883,96,32.8,4308,4410,Li-ion
21:12:56.255,4.434,596,2.64654,96,32.8,4308,4410,Li-ion
21:13:00.400,4.434,595,2.641,96,32.8,4310,4410,Li-ion
21:13:04.552,4.434,586,2.60082,96,32.8,4310,4410,Li-ion
21:13:08.696,4.432,598,2.65089,96,32.8,4310,4410,Li-ion
21:13:12.839,4.432,600,2.6592,96,32.8,4312,4410,Li-ion
21:13:16.976,4.432,593,2.63011,96,32.8,4312,4410,Li-ion
21:13:21.097,4.432,577,2.56086,96,32.8,4312,4410,Li-ion
21:13:25.238,4.432,581,2.57887,96,32.8,4314,4410,Li-ion
21:13:29.367,4.432,566,2.50962,96,32.8,4314,4410,Li-ion
21:13:33.507,4.435,580,2.5723,96,32.7,4314,4410,Li-ion
21:13:37.658,4.435,578,2.56537,96,32.7,4316,4410,Li-ion
21:13:41.825,4.435,582,2.582,96,32.7,4316,4410,Li-ion
21:13:45.950,4.435,582,2.58477,96,32.7,4316,4410,Li-ion
21:13:50.111,4.435,580,2.57368,96,32.7,4318,4410,Li-ion
21:13:54.266,4.435,573,2.54458,96,32.7,4318,4410,Li-ion
21:13:58.399,4.435,572,2.53904,96,32.7,4318,4410,Li-ion
21:14:02.555,4.435,565,2.50855,96,32.7,4320,4410,Li-ion
21:14:06.712,4.435,557,2.47251,96,32.7,4320,4410,Li-ion
21:14:10.859,4.434,570,2.53153,96,32.8,4320,4410,Li-ion
21:14:15.010,4.434,568,2.52184,96,32.8,4322,4410,Li-ion
21:14:19.172,4.434,564,2.50382,96,32.8,4322,4410,Li-ion
21:14:23.312,4.434,570,2.52876,96,32.8,4322,4410,Li-ion
21:14:27.452,4.434,564,2.50382,96,32.8,4324,4410,Li-ion
21:14:31.582,4.434,568,2.52045,96,32.8,4324,4410,Li-ion
21:14:35.723,4.434,566,2.51214,96,32.8,4324,4410,Li-ion
21:14:39.876,4.434,555,2.46364,96,32.8,4326,4410,Li-ion
21:14:44.006,4.434,552,2.449785,96,32.8,4326,4410,Li-ion
21:14:48.155,4.434,559,2.48165,96,32.8,4326,4410,Li-ion
21:14:52.296,4.434,550,2.44147,96,32.8,4326,4410,Li-ion
21:14:56.433,4.434,554,2.45948,96,32.8,4328,4410,Li-ion
21:15:00.568,4.434,544,2.41514,96,32.8,4328,4410,Li-ion
21:15:04.717,4.434,535,2.37496,96,32.8,4328,4410,Li-ion
21:15:08.867,4.435,552,2.45034,96,32.7,4330,4410,Li-ion
21:15:13.005,4.435,546,2.424,96,32.7,4330,4410,Li-ion
21:15:17.139,4.435,557,2.4739,96,32.7,4330,4410,Li-ion
21:15:21.303,4.435,547,2.42677,96,32.7,4332,4410,Li-ion
21:15:25.443,4.435,543,2.40876,96,32.7,4332,4410,Li-ion
21:15:29.581,4.435,535,2.3755,96,32.7,4332,4410,Li-ion
21:15:33.717,4.435,541,2.40183,96,32.7,4334,4410,Li-ion
21:15:37.859,4.435,541,2.40183,96,32.7,4334,4410,Li-ion
21:15:41.993,4.435,531,2.35609,96,32.7,4334,4410,Li-ion
21:15:46.127,4.435,544,2.41569,96,32.7,4336,4410,Li-ion
21:15:50.290,4.435,544,2.41291,96,32.7,4336,4410,Li-ion
21:15:54.451,4.435,541,2.40322,96,32.7,4336,4410,Li-ion
21:15:58.604,4.435,529,2.34778,96,32.7,4338,4410,Li-ion
21:16:02.761,4.435,532,2.36302,96,32.7,4338,4410,Li-ion
21:16:06.946,4.435,527,2.33946,97,32.7,4338,4410,Li-ion
21:16:11.086,4.433,532,2.35918,97,32.7,4338,4410,Li-ion
21:16:15.245,4.433,519,2.30377,97,32.7,4340,4410,Li-ion
21:16:19.390,4.433,534,2.3675,97,32.7,4340,4410,Li-ion
21:16:23.551,4.434,532,2.35972,97,32.7,4340,4410,Li-ion
21:16:27.698,4.434,531,2.35833,97,32.7,4342,4410,Li-ion
21:16:31.831,4.434,530,2.35279,97,32.7,4342,4410,Li-ion
21:16:35.983,4.434,540,2.39436,97,32.7,4342,4410,Li-ion
21:16:40.119,4.434,525,2.33062,97,32.7,4344,4410,Li-ion
21:16:44.274,4.434,527,2.33893,97,32.7,4344,4410,Li-ion
21:16:48.407,4.434,524,2.32646,97,32.7,4344,4410,Li-ion
21:16:52.537,4.434,524,2.32508,97,32.7,4344,4410,Li-ion
21:16:56.661,4.434,496,2.20037,97,32.7,4346,4410,Li-ion
21:17:00.793,4.434,521,2.31122,97,32.7,4346,4410,Li-ion
21:17:04.972,4.434,511,2.26827,97,32.7,4346,4410,Li-ion
21:17:19.328,4.434,516,2.29044,97,32.7,4348,4410,Li-ion
21:17:58.049,4.435,470,2.08722,98,32.7,4354,4410,Li-ion
21:18:02.150,4.435,466,2.06782,98,32.7,4354,4410,Li-ion
21:18:06.257,4.435,467,2.07475,98,32.7,4356,4410,Li-ion
21:18:10.339,4.435,484,2.14681,98,32.6,4356,4410,Li-ion
21:18:14.417,4.435,492,2.18562,98,32.6,4356,4410,Li-ion
21:18:18.560,4.435,477,2.1191,98,32.6,4358,4410,Li-ion
21:18:22.703,4.435,498,2.21057,98,32.6,4358,4410,Li-ion
21:18:26.856,4.435,501,2.22304,98,32.6,4358,4410,Li-ion
21:18:30.974,4.435,487,2.16345,98,32.6,4358,4410,Li-ion
21:18:35.095,4.435,478,2.12187,98,32.6,4360,4410,Li-ion
21:18:39.178,4.435,490,2.17731,98,32.6,4360,4410,Li-ion
21:18:43.288,4.435,488,2.16483,98,32.6,4360,4410,Li-ion
21:18:47.458,4.435,486,2.15929,98,32.6,4360,4410,Li-ion
21:18:51.547,4.435,463,2.05534,98,32.6,4362,4410,Li-ion
21:18:55.657,4.435,487,2.16206,98,32.6,4362,4410,Li-ion
21:18:59.809,4.435,489,2.17038,98,32.6,4362,4410,Li-ion
21:19:04.138,4.434,484,2.14772,98,32.7,4364,4410,Li-ion
21:19:08.328,4.434,474,2.10199,98,32.7,4364,4410,Li-ion
21:19:12.514,4.434,499,2.21423,98,32.7,4364,4410,Li-ion
21:19:16.695,4.434,475,2.10615,98,32.7,4364,4410,Li-ion
21:19:20.907,4.434,478,2.12001,98,32.7,4366,4410,Li-ion
21:19:25.152,4.434,481,2.13525,98,32.7,4366,4410,Li-ion
21:19:29.376,4.434,490,2.17543,98,32.7,4366,4410,Li-ion
21:19:33.621,4.434,488,2.16573,98,32.7,4368,4410,Li-ion
21:19:37.866,4.434,487,2.16296,98,32.7,4368,4410,Li-ion
21:19:42.118,4.434,474,2.10199,98,32.7,4368,4410,Li-ion
21:19:46.342,4.434,486,2.15742,98,32.7,4368,4410,Li-ion
21:19:50.538,4.434,463,2.05488,98,32.7,4370,4410,Li-ion
21:19:54.668,4.434,472,2.09368,98,32.7,4370,4410,Li-ion
21:19:58.731,4.434,457,2.02717,98,32.7,4370,4410,Li-ion
21:20:02.849,4.434,473,2.09784,98,32.7,4372,4410,Li-ion
21:20:06.969,4.434,475,2.10892,99,33.0,4372,4410,Li-ion
21:20:11.083,4.433,479,2.12507,99,33.0,4372,4410,Li-ion
21:20:15.178,4.433,478,2.11953,99,33.0,4372,4410,Li-ion
21:20:19.401,4.433,483,2.14169,99,33.0,4374,4410,Li-ion
21:20:23.719,4.433,483,2.14446,99,33.0,4374,4410,Li-ion
21:20:27.945,4.433,480,2.13061,99,33.0,4374,4410,Li-ion
21:20:32.178,4.434,464,2.05904,99,33.1,4374,4410,Li-ion
21:20:36.399,4.434,478,2.12001,99,33.1,4376,4410,Li-ion
21:20:40.665,4.434,449,1.99253,99,33.1,4376,4410,Li-ion
21:20:44.887,4.434,469,2.07982,99,33.1,4376,4410,Li-ion
21:20:49.122,4.434,476,2.11308,99,33.1,4378,4410,Li-ion
21:20:53.399,4.434,462,2.05211,99,33.1,4378,4410,Li-ion
21:20:57.620,4.434,454,2.01331,99,33.1,4378,4410,Li-ion
21:21:02.323,4.434,461,2.04795,99,33.1,4378,4410,Li-ion
21:21:06.535,4.434,460,2.04102,99,33.1,4380,4410,Li-ion
21:21:10.734,4.433,463,2.05442,99,33.2,4380,4410,Li-ion
21:21:14.899,4.433,459,2.03779,99,33.2,4380,4410,Li-ion
21:21:19.074,4.433,460,2.04195,99,33.2,4380,4410,Li-ion
21:21:23.261,4.433,466,2.06827,99,33.2,4382,4410,Li-ion
21:21:27.419,4.433,455,2.017015,99,33.2,4382,4410,Li-ion
21:21:31.610,4.433,451,2.00039,99,33.2,4382,4410,Li-ion
21:21:35.798,4.433,460,2.04195,99,33.2,4384,4410,Li-ion
21:21:39.974,4.433,450,1.99623,99,33.2,4384,4410,Li-ion
21:21:44.162,4.433,460,2.04333,99,33.2,4384,4410,Li-ion
21:21:48.331,4.433,447,1.98377,99,33.2,4384,4410,Li-ion
21:21:52.512,4.433,459,2.03779,99,33.2,4386,4410,Li-ion
21:21:56.717,4.433,451,2.00177,99,33.2,4386,4410,Li-ion
21:22:00.896,4.433,444,1.96991,99,33.2,4386,4410,Li-ion
21:22:05.082,4.433,455,2.0184,99,33.2,4386,4410,Li-ion
21:22:09.207,4.435,432,1.91952,100,33.4,4388,4410,Li-ion
21:22:13.385,4.435,446,1.9805,100,33.4,4388,4410,Li-ion
21:22:17.570,4.435,462,2.05119,100,33.4,4388,4410,Li-ion
21:22:21.771,4.435,451,2.00129,100,33.4,4388,4410,Li-ion
21:22:25.944,4.435,446,1.9805,100,33.4,4390,4410,Li-ion
21:22:30.112,4.435,438,1.94586,100,33.4,4390,4410,Li-ion
21:22:34.294,4.435,436,1.93754,100,33.4,4390,4410,Li-ion
21:22:38.471,4.435,442,1.9611,100,33.4,4390,4410,Li-ion
21:22:42.658,4.435,436,1.93615,100,33.4,4392,4410,Li-ion
21:22:46.826,4.435,437,1.93892,100,33.4,4392,4410,Li-ion
21:22:51.001,4.435,441,1.95833,100,33.4,4392,4410,Li-ion
21:22:55.185,4.435,449,1.99436,100,33.4,4392,4410,Li-ion
21:22:59.398,4.435,445,1.97496,100,33.4,4394,4410,Li-ion
21:23:03.582,4.435,431,1.91537,100,33.4,4394,4410,Li-ion
21:23:07.762,4.435,427,1.89596,100,33.4,4394,4410,Li-ion
21:23:11.934,4.434,430,1.90939,100,33.4,4394,4410,Li-ion
21:23:16.110,4.434,452,2.005,100,33.4,4396,4410,Li-ion
21:23:20.294,4.434,441,1.9565,100,33.4,4396,4410,Li-ion
21:23:24.490,4.434,439,1.94957,100,33.4,4396,4410,Li-ion
21:23:28.663,4.435,439,1.95001,100,33.4,4396,4410,Li-ion
21:23:32.845,4.435,435,1.93061,100,33.4,4398,4410,Li-ion
21:23:37.011,4.435,434,1.92784,100,33.4,4398,4410,Li-ion
21:23:41.172,4.435,432,1.91952,100,33.4,4398,4410,Li-ion
21:23:45.346,4.435,420,1.8627,100,33.4,4398,4410,Li-ion
21:23:49.528,4.435,430,1.91121,100,33.4,4400,4410,Li-ion
21:23:53.678,4.435,425,1.88626,100,33.4,4400,4410,Li-ion
21:23:57.816,4.435,423,1.87656,100,33.4,4400,4410,Li-ion
21:24:01.971,4.435,431,1.91398,100,33.4,4400,4410,Li-ion
21:24:06.126,4.435,415,1.8433,100,33.4,4402,4410,Li-ion
21:24:10.293,4.434,420,1.86366,100,33.3,4402,4410,Li-ion
21:24:14.455,4.434,423,1.87614,100,33.3,4402,4410,Li-ion
21:24:18.602,4.434,420,1.86643,100,33.3,4402,4410,Li-ion
21:24:22.754,4.434,423,1.87891,100,33.3,4404,4410,Li-ion
21:24:26.912,4.434,415,1.84149,100,33.3,4404,4410,Li-ion
21:24:31.061,4.434,416,1.84565,100,33.3,4404,4410,Li-ion
21:24:35.215,4.434,419,1.86089,100,33.3,4404,4410,Li-ion
21:24:39.366,4.434,408,1.8124,100,33.3,4406,4410,Li-ion
21:24:43.524,4.434,395,1.75281,100,33.3,4406,4410,Li-ion
21:24:47.710,4.434,408,1.81101,100,33.3,4406,4410,Li-ion
21:24:51.861,4.434,418,1.85397,100,33.3,4406,4410,Li-ion
21:24:56.022,4.434,429,1.90246,100,33.3,4408,4410,Li-ion
21:25:00.197,4.434,413,1.83457,100,33.3,4408,4410,Li-ion
21:25:04.365,4.434,412,1.83041,100,33.3,4408,4410,Li-ion
21:25:08.533,4.434,406,1.80131,100,33.3,4408,4410,Li-ion
21:25:12.708,4.434,410,1.82209,100,33.3,4410,4410,Li-ion
21:25:16.864,4.434,398,1.76806,100,33.3,4410,4410,Li-ion
21:25:21.060,4.434,402,1.784685,100,33.3,4410,4410,Li-ion
21:25:25.229,4.434,396,1.75697,100,33.3,4410,4410,Li-ion
21:25:29.409,4.434,403,1.78884,100,33.3,4410,4410,Li-ion
21:25:33.595,4.434,405,1.79715,100,33.3,4412,4410,Li-ion
21:25:37.773,4.434,399,1.77083,100,33.3,4412,4410,Li-ion
21:25:41.952,4.434,410,1.81794,100,33.3,4412,4410,Li-ion
21:25:46.137,4.434,410,1.81794,100,33.3,4412,4410,Li-ion
21:25:50.315,4.434,400,1.77498,100,33.3,4414,4410,Li-ion
21:25:54.489,4.434,397,1.762515,100,33.3,4414,4410,Li-ion
21:25:58.651,4.434,395,1.7542,100,33.3,4414,4410,Li-ion
21:26:02.841,4.434,397,1.7639,100,33.3,4414,4410,Li-ion
21:26:07.022,4.434,390,1.73203,100,33.3,4416,4410,Li-ion
21:26:11.194,4.436,387,1.71895,100,33.2,4416,4410,Li-ion
21:26:15.359,4.436,397,1.76192,100,33.2,4416,4410,Li-ion
21:26:19.535,4.436,396,1.75915,100,33.2,4416,4410,Li-ion
21:26:23.717,4.436,373,1.657955,100,33.2,4416,4410,Li-ion
21:26:27.886,4.436,390,1.7342,100,33.2,4418,4410,Li-ion
21:26:32.075,4.436,378,1.680135,100,33.2,4418,4410,Li-ion
21:26:36.255,4.436,386,1.71618,100,33.2,4418,4410,Li-ion
21:26:40.439,4.436,394,1.74945,100,33.2,4418,4410,Li-ion
21:26:44.635,4.436,386,1.71479,100,33.2,4420,4410,Li-ion
21:26:48.814,4.436,371,1.64825,100,33.2,4420,4410,Li-ion
21:26:52.994,4.436,377,1.67597,100,33.2,4420,4410,Li-ion
21:26:57.173,4.436,380,1.68706,100,33.2,4420,4410,Li-ion
21:27:01.345,4.436,394,1.75083,100,33.2,4422,4410,Li-ion
21:27:05.528,4.436,382,1.69677,100,33.2,4422,4410,Li-ion
21:27:09.693,4.434,378,1.67799,100,33.2,4422,4410,Li-ion
21:27:13.866,4.434,374,1.65859,100,33.2,4422,4410,Li-ion
21:27:18.091,4.436,370,1.64132,100,33.1,4422,4410,Li-ion
21:27:21.195,4.436,377,1.6732,100,33.1,4424,4410,Li-ion