File: dataset/pixel6a.txt
voltage(V),current(mA),battery_percent,battery_temperature(Celsius),remaining_battery_charge(mAh),battery_capacity(mAh),battery_technology
3.314,-3786.25,1,34.1,170,4410,Li-ion
3.647,-3980.625,1,34.1,174,4410,Li-ion
3.647,-3980.937,1,34.1,178,4410,Li-ion
3.647,-3975.312,1,34.1,180,4410,Li-ion
3.77,-3993.437,1,35,192,4410,Li-ion
3.77,-3980.312,1,35,196,4410,Li-ion
3.77,-3998.125,1,35,200,4410,Li-ion
3.77,-3998.125,1,35,202,4410,Li-ion
3.77,-3979.375,1,35,206,4410,Li-ion
3.868,-3987.187,2,37.1,226,4410,Li-ion
3.946,-3971.875,3,37.9,270,4410,Li-ion
3.953,-3968.75,3,38,276,4410,Li-ion
3.985,-3971.875,4,38.3,306,4410,Li-ion
3.999,-3985,4,38.4,322,4410,Li-ion
4.026,-3979.687,5,38.8,362,4410,Li-ion
4.037,-3991.875,6,39.3,404,4410,Li-ion
4.04,-3968.437,7,39.6,436,4410,Li-ion
4.046,-3974.062,8,40.1,484,4410,Li-ion
4.048,-3914.687,9,40.6,536,4410,Li-ion
4.054,-3517.812,9,40.7,552,4410,Li-ion
4.06,-3984.062,10,40.9,570,4410,Li-ion
4.062,-3977.5,10,41,586,4410,Li-ion
4.065,-3968.437,11,41.3,604,4410,Li-ion
4.068,-3983.125,11,41.4,626,4410,Li-ion
4.071,-3971.875,12,41.6,650,4410,Li-ion
4.071,-3901.562,12,41.6,654,4410,Li-ion
4.071,-3976.875,12,41.6,658,4410,Li-ion
4.075,-3979.062,12,41.7,668,4410,Li-ion
4.036,-3381.25,13,41.9,710,4410,Li-ion
4.088,-3989.375,14,42,754,4410,Li-ion
4.045,-3776.562,15,41.5,778,4410,Li-ion
4.099,-3986.875,16,42.2,828,4410,Li-ion
4.056,-3375.625,16,42.1,840,4410,Li-ion
4.056,-3977.187,17,41.3,880,4410,Li-ion
4.105,-3972.5,17,41.5,886,4410,Li-ion
4.112,-3373.437,18,42.4,922,4410,Li-ion
4.07,-3379.687,18,42.6,934,4410,Li-ion
4.07,-3386.25,18,41.7,948,4410,Li-ion
4.11,-3939.687,20,41.8,1000,4410,Li-ion
4.122,-3978.75,20,41.9,1016,4410,Li-ion
4.123,-3977.5,21,41.6,1058,4410,Li-ion
4.129,-3985,21,42,1072,4410,Li-ion
4.088,-3374.062,22,42,1100,4410,Li-ion
4.093,-3399.687,23,42.2,1130,4410,Li-ion
4.093,-3381.875,23,42.2,1144,4410,Li-ion
4.134,-3805.937,24,42.4,1178,4410,Li-ion
4.101,-3381.562,24,42.5,1192,4410,Li-ion
4.099,-3377.812,24,42.3,1200,4410,Li-ion
4.145,-3990,25,41.6,1232,4410,Li-ion
4.105,-3382.5,26,42,1276,4410,Li-ion
4.107,-3919.375,27,41.9,1308,4410,Li-ion
4.149,-3988.125,27,41.8,1314,4410,Li-ion
4.155,-3389.687,27,42.1,1328,4410,Li-ion
4.111,-3378.75,28,42.2,1344,4410,Li-ion
4.111,-3378.75,28,42.2,1348,4410,Li-ion
4.111,-3392.812,28,42.1,1362,4410,Li-ion
4.113,-3387.187,29,42.1,1396,4410,Li-ion
4.116,-3377.812,29,42.1,1424,4410,Li-ion
4.12,-3381.25,30,42.2,1454,4410,Li-ion
4.12,-3376.25,31,42.2,1482,4410,Li-ion
4.126,-3383.437,32,42.4,1536,4410,Li-ion
4.125,-3387.812,32,42.4,1544,4410,Li-ion
4.127,-3381.562,33,42.4,1572,4410,Li-ion
4.131,-3383.125,33,42.6,1592,4410,Li-ion
4.134,-3381.25,34,42.6,1624,4410,Li-ion
4.135,-2451.562,35,42.7,1650,4410,Li-ion
4.062,-2449.375,36,41.3,1690,4410,Li-ion
4.06,-2449.687,36,41.1,1714,4410,Li-ion
4.06,-2464.375,36,41.1,1716,4410,Li-ion
4.063,-2447.5,37,40.8,1752,4410,Li-ion
4.066,-2456.875,37,40.6,1772,4410,Li-ion
4.068,-2453.75,38,40.5,1798,4410,Li-ion
4.07,-2452.5,39,40.3,1834,4410,Li-ion
4.075,-2450.625,39,40.3,1858,4410,Li-ion
4.078,-2437.187,40,40.1,1880,4410,Li-ion
4.077,-2454.687,40,40.1,1894,4410,Li-ion
4.077,-2452.812,41,40,1922,4410,Li-ion
4.081,-2454.375,41,39.9,1936,4410,Li-ion
4.175,-3584.375,42,40.3,1972,4410,Li-ion
4.175,-3710.937,42,40.3,1976,4410,Li-ion
4.175,-3677.187,42,40.3,1980,4410,Li-ion
4.175,-3652.187,42,40.3,1984,4410,Li-ion
4.175,-3654.062,42,40.3,1986,4410,Li-ion
4.185,-3632.5,42,41.1,1990,4410,Li-ion
4.185,-3611.875,42,41.1,1992,4410,Li-ion
4.185,-3598.125,42,41.1,1996,4410,Li-ion
4.185,-3581.25,42,41.1,2000,4410,Li-ion
4.185,-3568.437,42,41.1,2002,4410,Li-ion
4.183,-3568.75,43,41.6,2006,4410,Li-ion
4.183,-3571.562,43,41.6,2010,4410,Li-ion
4.183,-3558.437,43,41.6,2012,4410,Li-ion
4.183,-3555,43,41.6,2016,4410,Li-ion
4.183,-3527.812,43,41.7,2018,4410,Li-ion
4.183,-3530,43,41.7,2022,4410,Li-ion
4.183,-3537.812,43,41.7,2024,4410,Li-ion
4.183,-3510.625,43,41.7,2028,4410,Li-ion
4.183,-3510.937,43,41.7,2030,4410,Li-ion
4.183,-3506.25,43,41.7,2034,4410,Li-ion
4.183,-3509.062,43,41.7,2036,4410,Li-ion
4.183,-3491.875,43,41.7,2040,4410,Li-ion
4.183,-3490,43,41.7,2042,4410,Li-ion
4.186,-3495.937,44,41.9,2046,4410,Li-ion
4.186,-3490,44,41.9,2048,4410,Li-ion
4.186,-3457.812,44,41.9,2052,4410,Li-ion
4.186,-3385.937,44,41.9,2054,4410,Li-ion
4.186,-3375.312,44,41.9,2058,4410,Li-ion
4.18,-3384.687,44,42,2060,4410,Li-ion
4.18,-3391.562,44,42,2064,4410,Li-ion
4.18,-3378.75,44,42,2066,4410,Li-ion
4.18,-3378.75,44,42,2070,4410,Li-ion
4.18,-3391.562,44,42,2072,4410,Li-ion
4.182,-3373.75,45,42,2088,4410,Li-ion
4.182,-3379.062,45,42,2100,4410,Li-ion
4.185,-3351.562,45,42.1,2106,4410,Li-ion
4.185,-3369.062,45,42.1,2118,4410,Li-ion
4.185,-3350.625,45,42.1,2122,4410,Li-ion
4.185,-3343.75,45,42.1,2126,4410,Li-ion
4.185,-3334.687,45,42.1,2128,4410,Li-ion
4.185,-3350.625,45,42.1,2132,4410,Li-ion
4.185,-3351.875,45,42.1,2134,4410,Li-ion
4.185,-3315.312,45,42.1,2138,4410,Li-ion
4.185,-3317.187,45,42.1,2140,4410,Li-ion
4.185,-3330.312,45,42.1,2144,4410,Li-ion
4.185,-3315.625,45,42.1,2146,4410,Li-ion
4.185,-3303.437,46,42.2,2148,4410,Li-ion
4.185,-3303.125,46,42.2,2152,4410,Li-ion
4.185,-3307.5,46,42.2,2154,4410,Li-ion
4.185,-3296.875,46,42.2,2158,4410,Li-ion
4.184,-2458.75,46,42.3,2160,4410,Li-ion
4.184,-2454.375,46,42.3,2162,4410,Li-ion
4.184,-2441.25,46,42.3,2164,4410,Li-ion
4.184,-2452.812,46,42.3,2166,4410,Li-ion
4.184,-2453.125,46,42.3,2168,4410,Li-ion
4.122,-2449.375,47,42,2170,4410,Li-ion
4.122,-2462.187,47,42,2172,4410,Li-ion
4.118,-2491.562,47,41.2,2190,4410,Li-ion
4.118,-2454.687,47,41.2,2194,4410,Li-ion
4.122,-2459.375,48,41.1,2220,4410,Li-ion
4.124,-2452.5,49,41,2260,4410,Li-ion
4.124,-2440.937,49,41,2276,4410,Li-ion
4.128,-2455,49,40.8,2298,4410,Li-ion
4.128,-2449.062,49,40.8,2300,4410,Li-ion
4.128,-2424.062,49,40.8,2302,4410,Li-ion
4.13,-2470,50,40.8,2308,4410,Li-ion
4.13,-2446.562,50,40.8,2310,4410,Li-ion
4.13,-2451.875,50,40.8,2312,4410,Li-ion
4.13,-2452.5,50,40.8,2314,4410,Li-ion
4.132,-2453.437,50,40.6,2320,4410,Li-ion
4.137,-2443.75,51,40.3,2346,4410,Li-ion
4.137,-2446.25,51,40.3,2348,4410,Li-ion
4.139,-2462.187,51,40.1,2384,4410,Li-ion
4.146,-2459.687,52,39.7,2406,4410,Li-ion
4.152,-2454.687,53,39.6,2438,4410,Li-ion
4.155,-2455.625,53,39.6,2450,4410,Li-ion
4.154,-2875.937,53,39.6,2460,4410,Li-ion
4.203,-2988.437,54,40.1,2486,4410,Li-ion
4.205,-2983.125,54,40.2,2494,4410,Li-ion
4.215,-2983.437,55,40.3,2542,4410,Li-ion
4.222,-2970.625,56,40.5,2580,4410,Li-ion
4.23,-2981.875,57,40.6,2618,4410,Li-ion
4.238,-2976.875,58,40.6,2668,4410,Li-ion
4.239,-2996.25,58,40.6,2674,4410,Li-ion
4.247,-2975.937,59,40.7,2710,4410,Li-ion
4.252,-2996.562,60,40.8,2736,4410,Li-ion
4.26,-2985.625,61,40.8,2778,4410,Li-ion
4.263,-2984.687,61,40.9,2798,4410,Li-ion
4.272,-2983.125,62,40.9,2840,4410,Li-ion
4.277,-2982.812,63,41,2868,4410,Li-ion
4.286,-2953.125,64,41,2914,4410,Li-ion
4.286,-2930.937,64,41,2918,4410,Li-ion
4.286,-2941.25,64,41,2920,4410,Li-ion
4.286,-2927.812,64,41,2924,4410,Li-ion
4.286,-2924.375,64,41,2926,4410,Li-ion
4.287,-2907.812,64,41,2928,4410,Li-ion
4.287,-2891.25,64,41,2932,4410,Li-ion
4.287,-2896.25,64,41,2934,4410,Li-ion
4.287,-2879.375,64,41,2936,4410,Li-ion
4.287,-2871.875,64,41,2938,4410,Li-ion
4.287,-2857.187,64,41,2942,4410,Li-ion
4.287,-2863.75,64,41,2944,4410,Li-ion
4.287,-2858.437,64,41,2946,4410,Li-ion
4.287,-2861.25,64,41,2950,4410,Li-ion
4.287,-2858.75,64,41,2952,4410,Li-ion
4.285,-2851.562,65,41,2954,4410,Li-ion
4.285,-2841.562,65,41,2956,4410,Li-ion
4.285,-2835.937,65,41,2960,4410,Li-ion
4.285,-2830,65,41,2962,4410,Li-ion
4.285,-2815,65,41,2964,4410,Li-ion
4.285,-2815.937,65,41,2966,4410,Li-ion
4.285,-2815,65,41,2970,4410,Li-ion
4.286,-2799.375,65,40.9,2972,4410,Li-ion
4.286,-2793.75,65,40.9,2974,4410,Li-ion
4.286,-2797.5,65,40.9,2976,4410,Li-ion
4.286,-2795.312,65,40.9,2978,4410,Li-ion
4.286,-2785.625,65,40.9,2982,4410,Li-ion
4.286,-2775.625,65,40.9,2984,4410,Li-ion
4.286,-2760,65,40.9,2986,4410,Li-ion
4.286,-2766.562,65,40.8,2988,4410,Li-ion
4.286,-2748.125,65,40.8,2990,4410,Li-ion
4.286,-2760.625,65,40.8,2994,4410,Li-ion
4.286,-2742.812,66,40.8,2996,4410,Li-ion
4.286,-2727.187,66,40.8,2998,4410,Li-ion
4.286,-2726.875,66,40.8,3000,4410,Li-ion
4.286,-2719.687,66,40.8,3004,4410,Li-ion
4.286,-2732.187,66,40.8,3006,4410,Li-ion
4.286,-2706.875,66,40.8,3008,4410,Li-ion
4.286,-2693.125,66,40.8,3010,4410,Li-ion
4.286,-2699.687,66,40.8,3012,4410,Li-ion
4.288,-2690.937,66,40.7,3014,4410,Li-ion
4.288,-2701.875,66,40.7,3018,4410,Li-ion
4.288,-2688.437,66,40.7,3020,4410,Li-ion
4.288,-2670,66,40.7,3022,4410,Li-ion
4.288,-2660.625,66,40.7,3024,4410,Li-ion
4.288,-2660.625,66,40.7,3026,4410,Li-ion
4.288,-2657.5,66,40.7,3028,4410,Li-ion
4.288,-2640.625,66,40.7,3032,4410,Li-ion
4.287,-2658.125,66,40.6,3034,4410,Li-ion
4.287,-2628.125,66,40.6,3036,4410,Li-ion
4.287,-2646.562,67,40.6,3038,4410,Li-ion
4.287,-2617.5,67,40.6,3040,4410,Li-ion
4.287,-2628.75,67,40.6,3042,4410,Li-ion
4.287,-2615,67,40.6,3046,4410,Li-ion
4.287,-2631.562,67,40.6,3048,4410,Li-ion
4.287,-2595.937,67,40.6,3050,4410,Li-ion
4.287,-2602.187,67,40.6,3052,4410,Li-ion
4.287,-2583.437,67,40.6,3054,4410,Li-ion
4.287,-2592.187,67,40.6,3056,4410,Li-ion
4.287,-2572.5,67,40.5,3058,4410,Li-ion
4.287,-2588.437,67,40.5,3060,4410,Li-ion
4.287,-2573.125,67,40.5,3062,4410,Li-ion
4.287,-2561.25,67,40.5,3066,4410,Li-ion
4.287,-2568.125,67,40.5,3068,4410,Li-ion
4.287,-2531.562,67,40.5,3070,4410,Li-ion
4.287,-2551.875,67,40.5,3072,4410,Li-ion
4.287,-2530.312,67,40.5,3074,4410,Li-ion
4.287,-2538.437,67,40.4,3076,4410,Li-ion
4.287,-2535.312,67,40.4,3078,4410,Li-ion
4.287,-2518.437,68,40.5,3080,4410,Li-ion
4.287,-2515.312,68,40.5,3084,4410,Li-ion
4.287,-2524.062,68,40.5,3086,4410,Li-ion
4.287,-2507.5,68,40.5,3088,4410,Li-ion
4.287,-2508.125,68,40.5,3090,4410,Li-ion
4.287,-2505.312,68,40.5,3092,4410,Li-ion
4.287,-2495.312,68,40.5,3094,4410,Li-ion
4.287,-2494.062,68,40.5,3096,4410,Li-ion
4.287,-2481.25,68,40.5,3098,4410,Li-ion
4.287,-2492.812,68,40.5,3100,4410,Li-ion
4.286,-2473.437,68,40.6,3102,4410,Li-ion
4.286,-2466.562,68,40.6,3106,4410,Li-ion
4.286,-2468.125,68,40.6,3108,4410,Li-ion
4.286,-2460.937,68,40.6,3110,4410,Li-ion
4.286,-2459.687,68,40.6,3112,4410,Li-ion
4.286,-2449.687,68,40.6,3114,4410,Li-ion
4.286,-2451.562,68,40.6,3116,4410,Li-ion
4.287,-2435.312,68,40.6,3118,4410,Li-ion
4.287,-2434.687,68,40.6,3120,4410,Li-ion
4.287,-2423.437,68,40.6,3122,4410,Li-ion
4.287,-2436.25,69,40.5,3124,4410,Li-ion
4.287,-2421.562,69,40.5,3126,4410,Li-ion
4.287,-2409.687,69,40.5,3128,4410,Li-ion
4.287,-2401.875,69,40.5,3130,4410,Li-ion
4.287,-2402.5,69,40.5,3132,4410,Li-ion
4.287,-2395,69,40.5,3134,4410,Li-ion
4.287,-2391.875,69,40.5,3136,4410,Li-ion
4.287,-2380.937,69,40.5,3138,4410,Li-ion
4.287,-2389.687,69,40.5,3142,4410,Li-ion
4.287,-2369.062,69,40.5,3144,4410,Li-ion
4.288,-2382.5,69,40.4,3146,4410,Li-ion
4.288,-2365,69,40.4,3148,4410,Li-ion
4.288,-2374.375,69,40.4,3150,4410,Li-ion
4.288,-2344.687,69,40.4,3152,4410,Li-ion
4.288,-2349.062,69,40.4,3154,4410,Li-ion
4.288,-2344.687,69,40.4,3156,4410,Li-ion
4.289,-2346.875,69,40.3,3158,4410,Li-ion
4.289,-2338.75,69,40.3,3160,4410,Li-ion
4.289,-2304.062,69,40.3,3162,4410,Li-ion
4.289,-2306.875,69,40.3,3164,4410,Li-ion
4.289,-2320.937,69,40.3,3166,4410,Li-ion
4.289,-2305.312,69,40.3,3168,4410,Li-ion
4.289,-2301.875,69,40.3,3170,4410,Li-ion
4.289,-2289.375,69,40.3,3172,4410,Li-ion
4.289,-2297.187,69,40.3,3174,4410,Li-ion
4.289,-2289.062,69,40.3,3176,4410,Li-ion
4.289,-2275,69,40.3,3178,4410,Li-ion
4.289,-2274.687,69,40.3,3180,4410,Li-ion
4.289,-2284.062,69,40.3,3182,4410,Li-ion
4.289,-2273.125,69,40.3,3184,4410,Li-ion
4.289,-2263.75,70,40.1,3186,4410,Li-ion
4.288,-2260.625,70,40.1,3188,4410,Li-ion
4.288,-2245.937,70,40.1,3190,4410,Li-ion
4.288,-2255.312,70,40.1,3192,4410,Li-ion
4.288,-2250.312,70,40.1,3194,4410,Li-ion
4.287,-2244.687,70,40.1,3196,4410,Li-ion
4.287,-2235,70,40.1,3198,4410,Li-ion
4.287,-2235.625,70,40.1,3200,4410,Li-ion
4.287,-2231.25,70,40.1,3202,4410,Li-ion
4.287,-2227.187,70,40.1,3204,4410,Li-ion
4.287,-2211.25,70,40.1,3206,4410,Li-ion
4.287,-2210.312,70,40.1,3208,4410,Li-ion
4.287,-2199.687,70,40.1,3210,4410,Li-ion
4.287,-2204.375,70,40.1,3212,4410,Li-ion
4.287,-2191.562,70,40.1,3214,4410,Li-ion
4.287,-2185,70,40.1,3216,4410,Li-ion
4.287,-2180.937,70,40.1,3218,4410,Li-ion
4.287,-2170,70,40.1,3218,4410,Li-ion
4.287,-2184.375,70,40.1,3220,4410,Li-ion
4.287,-2162.187,70,40.1,3222,4410,Li-ion
4.287,-2154.375,70,40.1,3224,4410,Li-ion
4.289,-2163.125,71,39.9,3226,4410,Li-ion
4.289,-2150.625,71,39.9,3228,4410,Li-ion
4.289,-2135,71,39.9,3230,4410,Li-ion
4.288,-2140.625,71,39.9,3232,4410,Li-ion
4.289,-2110,71,39.9,3234,4410,Li-ion
4.289,-2117.5,71,39.9,3236,4410,Li-ion
4.289,-2127.812,71,39.9,3238,4410,Li-ion
4.289,-2110.937,71,39.9,3240,4410,Li-ion
4.289,-2117.5,71,39.9,3242,4410,Li-ion
4.289,-2123.437,71,39.9,3244,4410,Li-ion
4.289,-2116.875,71,39.9,3246,4410,Li-ion
4.289,-2112.5,71,39.9,3246,4410,Li-ion
4.289,-2122.5,71,39.9,3248,4410,Li-ion
4.289,-2129.687,71,39.9,3250,4410,Li-ion
4.289,-2130.625,71,39.9,3252,4410,Li-ion
4.295,-2117.812,72,39.6,3268,4410,Li-ion
4.304,-2114.062,73,39.3,3302,4410,Li-ion
4.307,-2118.437,73,39.2,3320,4410,Li-ion
4.319,-2118.437,74,39,3356,4410,Li-ion
4.318,-2115,74,38.9,3368,4410,Li-ion
4.328,-2127.187,75,38.8,3392,4410,Li-ion
4.332,-2120.625,75,38.6,3412,4410,Li-ion
4.338,-2117.5,76,38.6,3430,4410,Li-ion
4.343,-2128.125,76,38.4,3448,4410,Li-ion
4.353,-2122.187,77,38.3,3480,4410,Li-ion
4.357,-2131.562,77,38.2,3498,4410,Li-ion
4.368,-2123.75,78,38,3534,4410,Li-ion
4.377,-2118.437,79,38,3568,4410,Li-ion
4.386,-2119.375,80,37.9,3602,4410,Li-ion
4.393,-2123.437,80,37.8,3622,4410,Li-ion
4.393,-2111.875,80,37.8,3628,4410,Li-ion
4.393,-2122.812,80,37.8,3630,4410,Li-ion
4.404,-2111.562,81,37.7,3656,4410,Li-ion
4.414,-2117.812,82,37.7,3692,4410,Li-ion
4.417,-2108.125,82,37.6,3722,4410,Li-ion
4.424,-2114.062,82,37.6,3726,4410,Li-ion
4.429,-2099.375,83,37.6,3752,4410,Li-ion
4.428,-1982.187,84,37.4,3784,4410,Li-ion
4.428,-1970.312,84,37.4,3788,4410,Li-ion
4.43,-1934.687,84,37.3,3800,4410,Li-ion
4.43,-1915.625,84,37.3,3802,4410,Li-ion
4.43,-1934.062,84,37.3,3804,4410,Li-ion
4.43,-1820,85,37.1,3838,4410,Li-ion
4.43,-1763.75,85,37,3858,4410,Li-ion
4.43,-1750,85,37,3860,4410,Li-ion
4.43,-1740.625,85,37,3860,4410,Li-ion
4.43,-1742.812,85,37,3862,4410,Li-ion
4.43,-1746.562,85,37,3864,4410,Li-ion
4.43,-1745.625,85,37,3866,4410,Li-ion
4.43,-1737.187,85,37,3866,4410,Li-ion
4.43,-1737.5,85,37,3868,4410,Li-ion
4.43,-1729.375,85,37,3870,4410,Li-ion
4.43,-1733.437,85,37,3872,4410,Li-ion
4.43,-1722.812,86,36.8,3872,4410,Li-ion
4.43,-1710,86,36.8,3874,4410,Li-ion
4.43,-1726.875,86,36.8,3876,4410,Li-ion
4.43,-1714.687,86,36.8,3878,4410,Li-ion
4.43,-1706.562,86,36.8,3878,4410,Li-ion
4.43,-1705,86,36.8,3880,4410,Li-ion
4.429,-1695.937,86,36.8,3882,4410,Li-ion
4.429,-1683.125,86,36.8,3884,4410,Li-ion
4.429,-1678.75,86,36.8,3884,4410,Li-ion
4.431,-1687.5,86,36.8,3886,4410,Li-ion
4.431,-1678.437,86,36.8,3888,4410,Li-ion
4.431,-1676.875,86,36.8,3888,4410,Li-ion
4.431,-1664.375,86,36.8,3890,4410,Li-ion
4.431,-1669.062,86,36.8,3892,4410,Li-ion
4.431,-1671.25,86,36.8,3894,4410,Li-ion
4.431,-1658.437,86,36.8,3894,4410,Li-ion
4.431,-1658.437,86,36.8,3896,4410,Li-ion
4.431,-1648.437,86,36.8,3898,4410,Li-ion
4.431,-1635.937,86,36.8,3898,4410,Li-ion
4.431,-1636.25,86,36.8,3900,4410,Li-ion
4.431,-1635.937,86,36.8,3902,4410,Li-ion
4.431,-1633.125,86,36.8,3904,4410,Li-ion
4.431,-1624.062,86,36.8,3904,4410,Li-ion
4.431,-1624.375,86,36.8,3906,4410,Li-ion
4.431,-1622.812,86,36.8,3908,4410,Li-ion
4.431,-1622.187,86,36.8,3908,4410,Li-ion
4.431,-1602.5,87,36.7,3910,4410,Li-ion
4.431,-1617.5,87,36.7,3912,4410,Li-ion
4.431,-1614.062,87,36.7,3914,4410,Li-ion
4.431,-1596.875,87,36.6,3914,4410,Li-ion
4.431,-1595.937,87,36.6,3916,4410,Li-ion
4.431,-1585.625,87,36.6,3918,4410,Li-ion
4.431,-1591.562,87,36.6,3918,4410,Li-ion
4.431,-1593.125,87,36.6,3920,4410,Li-ion
4.431,-1580.625,87,36.6,3922,4410,Li-ion
4.431,-1571.562,87,36.6,3922,4410,Li-ion
4.431,-1569.375,87,36.6,3924,4410,Li-ion
4.43,-1579.375,87,36.5,3926,4410,Li-ion
4.43,-1570.625,87,36.5,3926,4410,Li-ion
4.43,-1564.375,87,36.5,3928,4410,Li-ion
4.43,-1560.937,87,36.5,3930,4410,Li-ion
4.43,-1556.562,87,36.5,3930,4410,Li-ion
4.43,-1548.75,87,36.5,3932,4410,Li-ion
4.43,-1546.25,87,36.5,3934,4410,Li-ion
4.43,-1542.812,87,36.5,3934,4410,Li-ion
4.43,-1538.437,87,36.5,3936,4410,Li-ion
4.43,-1532.187,87,36.5,3938,4410,Li-ion
4.43,-1534.687,87,36.5,3938,4410,Li-ion
4.432,-1526.562,87,36.4,3940,4410,Li-ion
4.432,-1529.062,87,36.4,3942,4410,Li-ion
4.432,-1512.5,87,36.4,3942,4410,Li-ion
4.432,-1515.937,87,36.4,3944,4410,Li-ion
4.432,-1510.937,87,36.4,3946,4410,Li-ion
4.432,-1497.812,87,36.4,3946,4410,Li-ion
4.432,-1497.187,87,36.4,3948,4410,Li-ion
4.432,-1494.062,87,36.4,3950,4410,Li-ion
4.432,-1496.875,87,36.4,3950,4410,Li-ion
4.431,-1499.062,88,36.3,3952,4410,Li-ion
4.431,-1490.625,88,36.3,3954,4410,Li-ion
4.431,-1486.875,88,36.3,3954,4410,Li-ion
4.431,-1495,88,36.3,3956,4410,Li-ion
4.431,-1490.625,88,36.3,3958,4410,Li-ion
4.431,-1485.625,88,36.3,3958,4410,Li-ion
4.431,-1477.812,88,36.3,3960,4410,Li-ion
4.431,-1471.562,88,36.3,3962,4410,Li-ion
4.431,-1454.062,88,36.3,3962,4410,Li-ion
4.431,-1460.312,88,36.3,3964,4410,Li-ion
4.432,-1453.75,88,36.3,3964,4410,Li-ion
4.432,-1461.25,88,36.3,3966,4410,Li-ion
4.432,-1455,88,36.3,3968,4410,Li-ion
4.431,-1443.437,88,36.2,3968,4410,Li-ion
4.431,-1445.625,88,36.2,3970,4410,Li-ion
4.431,-1441.562,88,36.2,3972,4410,Li-ion
4.431,-1450.312,88,36.2,3972,4410,Li-ion
4.431,-1440.937,88,36.2,3974,4410,Li-ion
4.431,-1454.062,88,36.2,3974,4410,Li-ion
4.431,-1424.062,88,36.2,3976,4410,Li-ion
4.431,-1413.125,88,36.2,3978,4410,Li-ion
4.431,-1420,88,36.2,3978,4410,Li-ion
4.431,-1415.625,88,36.2,3980,4410,Li-ion
4.431,-1425.625,88,36.2,3982,4410,Li-ion
4.431,-1421.25,88,36.2,3982,4410,Li-ion
4.431,-1397.5,88,36.2,3984,4410,Li-ion
4.431,-1427.812,88,36.2,3984,4410,Li-ion
4.431,-1385.312,88,36.2,3986,4410,Li-ion
4.431,-1404.687,88,36.2,3988,4410,Li-ion
4.431,-1419.375,88,36.1,3988,4410,Li-ion
4.431,-1400.625,88,36.1,3990,4410,Li-ion
4.431,-1393.437,88,36.1,3990,4410,Li-ion
4.431,-1384.062,88,36.1,3992,4410,Li-ion
4.431,-1356.562,89,36.1,3994,4410,Li-ion
4.431,-1374.062,89,36.1,3994,4410,Li-ion
4.431,-1382.187,89,36.1,3996,4410,Li-ion
4.431,-1371.25,89,36.1,3996,4410,Li-ion
4.431,-1370.625,89,36.1,3998,4410,Li-ion
4.431,-1362.812,89,36.1,4000,4410,Li-ion
4.431,-1356.562,89,36.1,4000,4410,Li-ion
4.431,-1354.687,89,36.1,4002,4410,Li-ion
4.431,-1357.812,89,36.1,4002,4410,Li-ion
4.431,-1357.187,89,36.1,4004,4410,Li-ion
4.431,-1343.125,89,36.1,4006,4410,Li-ion
4.431,-1339.687,89,36.1,4006,4410,Li-ion
4.431,-1345.312,89,36.1,4008,4410,Li-ion
4.431,-1337.5,89,36.1,4008,4410,Li-ion
4.431,-1334.375,89,36.1,4010,4410,Li-ion
4.431,-1333.437,89,36.1,4010,4410,Li-ion
4.431,-1348.437,89,36,4012,4410,Li-ion
4.431,-1321.25,89,36,4014,4410,Li-ion
4.431,-1324.375,89,36,4014,4410,Li-ion
4.431,-1321.875,89,36,4016,4410,Li-ion
4.431,-1323.75,89,36,4016,4410,Li-ion
4.431,-1326.875,89,36,4018,4410,Li-ion
4.431,-1321.562,89,36,4018,4410,Li-ion
4.431,-1305,89,36,4020,4410,Li-ion
4.431,-1318.125,89,36,4022,4410,Li-ion
4.431,-1313.125,89,36,4022,4410,Li-ion
4.431,-1309.687,89,36,4024,4410,Li-ion
4.431,-1305.625,89,36,4024,4410,Li-ion
4.431,-1301.562,89,36,4026,4410,Li-ion
4.431,-1293.125,89,36,4026,4410,Li-ion
4.431,-1274.687,89,36,4028,4410,Li-ion
4.431,-1290,89,36,4030,4410,Li-ion
4.431,-1280.937,89,36,4030,4410,Li-ion
4.431,-1284.062,89,36,4032,4410,Li-ion
4.431,-1275.312,89,36,4032,4410,Li-ion
4.431,-1280.937,90,35.8,4034,4410,Li-ion
4.431,-1263.75,90,35.8,4034,4410,Li-ion
4.431,-1278.437,90,35.8,4036,4410,Li-ion
4.431,-1278.75,90,35.8,4036,4410,Li-ion
4.431,-1275.312,90,35.8,4038,4410,Li-ion
4.431,-1259.687,90,35.8,4038,4410,Li-ion
4.431,-1250,90,35.8,4040,4410,Li-ion
4.431,-1260,90,35.8,4042,4410,Li-ion
4.431,-1254.062,90,35.8,4042,4410,Li-ion
4.431,-1243.437,90,35.8,4044,4410,Li-ion
4.431,-1239.062,90,35.8,4044,4410,Li-ion
4.431,-1238.75,90,35.8,4046,4410,Li-ion
4.431,-1251.25,90,35.8,4046,4410,Li-ion
4.431,-1235.625,90,35.8,4048,4410,Li-ion
4.431,-1225,90,35.8,4048,4410,Li-ion
4.431,-1232.187,90,35.8,4050,4410,Li-ion
4.431,-1228.125,90,35.8,4050,4410,Li-ion
4.431,-1222.812,90,35.8,4052,4410,Li-ion
4.431,-1225.625,90,35.8,4052,4410,Li-ion
4.432,-1214.375,90,35.6,4054,4410,Li-ion
4.434,-1219.687,90,35.7,4056,4410,Li-ion
4.434,-1207.187,90,35.7,4056,4410,Li-ion
4.434,-1216.25,90,35.7,4058,4410,Li-ion
4.434,-1216.562,90,35.7,4058,4410,Li-ion
4.434,-1206.875,90,35.7,4060,4410,Li-ion
4.434,-1192.5,90,35.7,4060,4410,Li-ion
4.434,-1214.062,90,35.7,4062,4410,Li-ion
4.434,-1199.375,90,35.7,4062,4410,Li-ion
4.434,-1197.5,90,35.7,4064,4410,Li-ion
4.434,-1194.062,90,35.7,4064,4410,Li-ion
4.434,-1183.125,90,35.7,4066,4410,Li-ion
4.434,-1186.562,90,35.7,4066,4410,Li-ion
4.434,-1178.437,90,35.7,4068,4410,Li-ion
4.434,-1169.687,90,35.7,4068,4410,Li-ion
4.434,-1170.625,90,35.7,4070,4410,Li-ion
4.434,-1178.437,90,35.7,4070,4410,Li-ion
4.434,-1170.312,90,35.7,4072,4410,Li-ion
4.434,-1173.75,90,35.7,4072,4410,Li-ion
4.431,-1164.062,90,35.5,4074,4410,Li-ion
4.431,-1164.062,90,35.5,4074,4410,Li-ion
4.431,-1171.25,90,35.5,4076,4410,Li-ion
4.431,-1152.5,90,35.5,4076,4410,Li-ion
4.431,-1161.25,90,35.5,4078,4410,Li-ion
4.431,-1143.437,90,35.5,4078,4410,Li-ion
4.431,-1148.437,90,35.5,4080,4410,Li-ion
4.431,-1166.875,90,35.5,4080,4410,Li-ion
4.431,-1143.75,90,35.5,4082,4410,Li-ion
4.431,-1150,90,35.5,4082,4410,Li-ion
4.431,-1145.937,90,35.5,4084,4410,Li-ion
4.431,-1142.5,90,35.5,4084,4410,Li-ion
4.433,-1120.937,91,35.4,4086,4410,Li-ion
4.433,-1123.125,91,35.4,4086,4410,Li-ion
4.433,-1120.625,91,35.4,4088,4410,Li-ion
4.433,-1137.5,91,35.4,4088,4410,Li-ion
4.433,-1122.187,91,35.4,4090,4410,Li-ion
4.433,-1121.875,91,35.4,4090,4410,Li-ion
4.433,-1116.562,91,35.4,4092,4410,Li-ion
4.433,-1108.125,91,35.4,4092,4410,Li-ion
4.432,-1115.312,91,35.4,4094,4410,Li-ion
4.432,-1107.812,91,35.4,4094,4410,Li-ion
4.432,-1105,91,35.4,4096,4410,Li-ion
4.432,-1105.937,91,35.4,4096,4410,Li-ion
4.432,-1116.875,91,35.4,4098,4410,Li-ion
4.432,-1100.937,91,35.3,4098,4410,Li-ion
4.432,-1084.375,91,35.3,4100,4410,Li-ion
4.432,-1090.937,91,35.3,4100,4410,Li-ion
4.432,-1104.687,91,35.3,4102,4410,Li-ion
4.432,-1084.062,91,35.3,4102,4410,Li-ion
4.432,-1095.312,91,35.3,4102,4410,Li-ion
4.432,-1086.25,91,35.3,4104,4410,Li-ion
4.432,-1079.375,91,35.3,4104,4410,Li-ion
4.432,-1098.125,91,35.3,4106,4410,Li-ion
4.432,-1092.187,91,35.3,4106,4410,Li-ion
4.432,-1070.937,91,35.3,4108,4410,Li-ion
4.432,-1080.937,91,35.3,4108,4410,Li-ion
4.432,-1065.937,91,35.3,4110,4410,Li-ion
4.432,-1068.125,91,35.3,4110,4410,Li-ion
4.431,-1080.937,91,35.2,4112,4410,Li-ion
4.431,-1074.375,91,35.2,4112,4410,Li-ion
4.431,-1071.562,91,35.2,4114,4410,Li-ion
4.431,-1061.25,91,35.2,4114,4410,Li-ion
4.431,-1058.437,91,35.2,4116,4410,Li-ion
4.431,-1061.875,91,35.2,4116,4410,Li-ion
4.431,-1054.062,91,35.2,4116,4410,Li-ion
4.431,-1048.437,91,35.2,4118,4410,Li-ion
4.431,-1060.625,91,35.2,4118,4410,Li-ion
4.431,-1041.562,91,35.2,4120,4410,Li-ion
4.431,-1040.937,91,35.2,4120,4410,Li-ion
4.431,-1051.25,91,35.2,4122,4410,Li-ion
4.431,-1050.625,91,35.2,4122,4410,Li-ion
4.431,-1045.937,91,35.2,4124,4410,Li-ion
4.431,-1048.125,91,35.2,4124,4410,Li-ion
4.431,-1023.125,91,35.2,4124,4410,Li-ion
4.431,-1030.312,92,35.1,4126,4410,Li-ion
4.431,-1028.125,92,35.1,4126,4410,Li-ion
4.431,-1021.562,92,35.1,4128,4410,Li-ion
4.433,-1028.125,92,35.1,4128,4410,Li-ion
4.433,-1020,92,35.1,4130,4410,Li-ion
4.433,-1015.625,92,35.1,4130,4410,Li-ion
4.433,-1016.25,92,35.1,4132,4410,Li-ion
4.433,-1017.812,92,35.1,4132,4410,Li-ion
4.433,-1021.25,92,35.1,4134,4410,Li-ion
4.433,-1015.937,92,35.1,4134,4410,Li-ion
4.433,-1015.312,92,35.1,4134,4410,Li-ion
4.433,-1007.812,92,35.1,4136,4410,Li-ion
4.433,-994.375,92,35.1,4136,4410,Li-ion
4.433,-1005.312,92,35.1,4138,4410,Li-ion
4.433,-996.875,92,35.1,4138,4410,Li-ion
4.433,-997.812,92,35.1,4140,4410,Li-ion
4.433,-994.062,92,35.1,4140,4410,Li-ion
4.433,-1000.937,92,35.1,4140,4410,Li-ion
4.433,-1007.812,92,34.9,4142,4410,Li-ion
4.433,-991.562,92,34.9,4142,4410,Li-ion
4.433,-988.125,92,34.9,4144,4410,Li-ion
4.433,-969.687,92,34.9,4144,4410,Li-ion
4.432,-995.625,92,35,4146,4410,Li-ion
4.432,-999.687,92,35,4146,4410,Li-ion
4.432,-982.812,92,35,4146,4410,Li-ion
4.432,-968.125,92,35,4148,4410,Li-ion
4.432,-985.625,92,35,4148,4410,Li-ion
4.432,-965,92,35,4150,4410,Li-ion
4.432,-969.062,92,35,4150,4410,Li-ion
4.432,-984.687,92,35,4152,4410,Li-ion
4.432,-970.937,92,35,4152,4410,Li-ion
4.432,-960.625,92,35,4152,4410,Li-ion
4.432,-965.625,92,35,4154,4410,Li-ion
4.432,-953.75,92,35,4154,4410,Li-ion
4.432,-954.062,92,35,4156,4410,Li-ion
4.432,-969.687,92,35,4156,4410,Li-ion
4.432,-954.375,92,35,4156,4410,Li-ion
4.432,-937.812,92,35,4158,4410,Li-ion
4.432,-952.187,92,35,4158,4410,Li-ion
4.432,-934.687,92,35,4160,4410,Li-ion
4.432,-945.937,92,35,4160,4410,Li-ion
4.432,-956.25,92,35,4162,4410,Li-ion
4.432,-945,92,34.6,4162,4410,Li-ion
4.432,-934.062,92,34.6,4162,4410,Li-ion
4.432,-932.812,92,34.6,4164,4410,Li-ion
4.432,-939.687,92,34.6,4164,4410,Li-ion
4.432,-930.625,92,34.6,4166,4410,Li-ion
4.431,-922.812,93,34.6,4166,4410,Li-ion
4.431,-924.375,93,34.6,4166,4410,Li-ion
4.431,-925.937,93,34.6,4168,4410,Li-ion
4.431,-933.125,93,34.6,4168,4410,Li-ion
4.431,-928.75,93,34.6,4170,4410,Li-ion
4.431,-931.562,93,34.6,4170,4410,Li-ion
4.431,-922.812,93,34.6,4170,4410,Li-ion
4.431,-930,93,34.6,4172,4410,Li-ion
4.431,-916.875,93,34.6,4172,4410,Li-ion
4.431,-915.625,93,34.6,4174,4410,Li-ion
4.431,-897.812,93,34.6,4174,4410,Li-ion
4.431,-900,93,34.6,4174,4410,Li-ion
4.431,-909.062,93,34.6,4176,4410,Li-ion
4.431,-904.375,93,34.6,4176,4410,Li-ion
4.433,-908.437,93,34.3,4176,4410,Li-ion
4.433,-904.375,93,34.3,4178,4410,Li-ion
4.433,-892.5,93,34.3,4178,4410,Li-ion
4.433,-901.562,93,34.3,4180,4410,Li-ion
4.433,-892.5,93,34.3,4180,4410,Li-ion
4.433,-909.062,93,34.3,4180,4410,Li-ion
4.433,-896.562,93,34.3,4182,4410,Li-ion
4.433,-895.312,93,34.3,4182,4410,Li-ion
4.433,-872.5,93,34.3,4184,4410,Li-ion
4.433,-862.5,93,34.3,4184,4410,Li-ion
4.432,-884.687,93,34.2,4184,4410,Li-ion
4.432,-878.125,93,34.2,4186,4410,Li-ion
4.432,-873.437,93,34.2,4186,4410,Li-ion
4.432,-870.937,93,34.2,4186,4410,Li-ion
4.432,-875.312,93,34.2,4188,4410,Li-ion
4.432,-866.562,93,34.2,4188,4410,Li-ion
4.432,-890.312,93,34.2,4190,4410,Li-ion
4.432,-864.375,93,34.2,4190,4410,Li-ion
4.432,-862.5,93,34.2,4190,4410,Li-ion
4.433,-861.562,93,34.1,4192,4410,Li-ion
4.433,-872.5,93,34.1,4192,4410,Li-ion
4.433,-851.562,93,34.1,4194,4410,Li-ion
4.433,-863.75,93,34.1,4194,4410,Li-ion
4.433,-863.437,93,34.1,4194,4410,Li-ion
4.433,-837.187,93,34.1,4196,4410,Li-ion
4.433,-867.187,93,34.1,4196,4410,Li-ion
4.433,-859.062,93,34.1,4196,4410,Li-ion
4.433,-850.312,93,34.1,4198,4410,Li-ion
4.433,-851.562,93,34.1,4198,4410,Li-ion
4.433,-859.375,93,34.1,4198,4410,Li-ion
4.433,-844.375,93,34.1,4200,4410,Li-ion
4.433,-847.812,93,34.1,4200,4410,Li-ion
4.433,-835.937,93,34.1,4202,4410,Li-ion
4.433,-834.062,93,34.1,4202,4410,Li-ion
4.433,-836.875,93,34.1,4202,4410,Li-ion
4.433,-836.875,93,34.1,4204,4410,Li-ion
4.433,-834.687,93,34.1,4204,4410,Li-ion
4.433,-835.937,93,34.1,4204,4410,Li-ion
4.433,-826.875,93,34.1,4206,4410,Li-ion
4.433,-830.625,93,33.8,4206,4410,Li-ion
4.434,-828.437,94,33.8,4206,4410,Li-ion
4.434,-828.75,94,33.8,4208,4410,Li-ion
4.434,-823.125,94,33.8,4208,4410,Li-ion
4.434,-808.125,94,33.8,4210,4410,Li-ion
4.434,-822.812,94,33.8,4210,4410,Li-ion
4.434,-827.5,94,33.8,4210,4410,Li-ion
4.434,-816.562,94,33.8,4212,4410,Li-ion
4.434,-816.875,94,33.8,4212,4410,Li-ion
4.434,-809.062,94,33.8,4212,4410,Li-ion
4.434,-813.125,94,33.8,4214,4410,Li-ion
4.434,-791.562,94,33.8,4214,4410,Li-ion
4.434,-806.25,94,33.8,4214,4410,Li-ion
4.434,-811.875,94,33.8,4216,4410,Li-ion
4.434,-795.937,94,33.8,4216,4410,Li-ion
4.434,-785.937,94,33.8,4216,4410,Li-ion
4.434,-802.187,94,33.8,4218,4410,Li-ion
4.434,-811.562,94,33.8,4218,4410,Li-ion
4.434,-797.187,94,33.8,4218,4410,Li-ion
4.433,-797.187,94,33.4,4220,4410,Li-ion
4.433,-783.437,94,33.4,4220,4410,Li-ion
4.433,-790,94,33.4,4220,4410,Li-ion
4.433,-795.937,94,33.4,4222,4410,Li-ion
4.433,-778.75,94,33.4,4222,4410,Li-ion
4.433,-784.687,94,33.4,4222,4410,Li-ion
4.433,-784.062,94,33.4,4224,4410,Li-ion
4.433,-789.062,94,33.4,4224,4410,Li-ion
4.433,-778.125,94,33.4,4224,4410,Li-ion
4.433,-778.125,94,33.4,4226,4410,Li-ion
4.433,-777.812,94,33.4,4226,4410,Li-ion
4.433,-777.5,94,33.4,4226,4410,Li-ion
4.434,-771.562,94,33.3,4228,4410,Li-ion
4.434,-780,94,33.3,4228,4410,Li-ion
4.434,-768.125,94,33.3,4228,4410,Li-ion
4.434,-776.25,94,33.3,4230,4410,Li-ion
4.434,-774.687,94,33.3,4230,4410,Li-ion
4.434,-764.687,94,33.3,4230,4410,Li-ion
4.434,-763.75,94,33.3,4232,4410,Li-ion
4.433,-755.625,94,33.3,4232,4410,Li-ion
4.433,-755.625,94,33.3,4232,4410,Li-ion
4.433,-758.437,94,33.3,4234,4410,Li-ion
4.433,-765.312,94,33.3,4234,4410,Li-ion
4.433,-745,94,33.3,4234,4410,Li-ion
4.433,-768.125,94,33.3,4236,4410,Li-ion
4.433,-754.687,94,33.3,4236,4410,Li-ion
4.433,-735.625,94,33.3,4236,4410,Li-ion
4.433,-737.5,94,33.3,4238,4410,Li-ion
4.433,-757.812,94,33.3,4238,4410,Li-ion
4.433,-745.937,94,33.3,4238,4410,Li-ion
4.433,-754.687,94,33.3,4240,4410,Li-ion
4.433,-744.375,94,33.3,4240,4410,Li-ion
4.433,-756.562,94,33.3,4240,4410,Li-ion
4.433,-741.25,94,33.3,4242,4410,Li-ion
4.433,-760.312,94,33.3,4242,4410,Li-ion
4.433,-733.125,94,33.3,4242,4410,Li-ion
4.433,-736.562,94,33.3,4244,4410,Li-ion
4.433,-721.875,94,33.3,4244,4410,Li-ion
4.435,-734.687,94,33,4244,4410,Li-ion
4.435,-724.375,94,33,4246,4410,Li-ion
4.435,-741.25,94,33,4246,4410,Li-ion
4.435,-743.125,94,33,4246,4410,Li-ion
4.435,-733.75,94,33,4248,4410,Li-ion
4.435,-726.25,94,33,4248,4410,Li-ion
4.435,-725.625,94,33,4248,4410,Li-ion
4.435,-725.937,94,33,4248,4410,Li-ion
4.435,-715.937,94,33,4250,4410,Li-ion
4.435,-705,94,33,4250,4410,Li-ion
4.435,-732.812,94,33,4250,4410,Li-ion
4.435,-712.187,94,33,4252,4410,Li-ion
4.435,-715,94,33,4252,4410,Li-ion
4.435,-715.312,94,33,4252,4410,Li-ion
4.434,-711.875,95,33,4254,4410,Li-ion
4.434,-705.937,95,33,4254,4410,Li-ion
4.434,-704.687,95,33,4254,4410,Li-ion
4.434,-701.25,95,33,4256,4410,Li-ion
4.434,-709.687,95,33,4256,4410,Li-ion
4.434,-695.937,95,33,4256,4410,Li-ion
4.434,-705.625,95,32.9,4256,4410,Li-ion
4.434,-703.75,95,32.9,4258,4410,Li-ion
4.434,-699.687,95,32.9,4258,4410,Li-ion
4.434,-705.625,95,32.9,4258,4410,Li-ion
4.434,-698.437,95,32.9,4260,4410,Li-ion
4.434,-707.5,95,32.9,4260,4410,Li-ion
4.434,-701.562,95,32.9,4260,4410,Li-ion
4.434,-694.375,95,32.9,4262,4410,Li-ion
4.434,-690.312,95,32.9,4262,4410,Li-ion
4.434,-694.375,95,32.9,4262,4410,Li-ion
4.434,-693.75,95,32.9,4264,4410,Li-ion
4.434,-693.75,95,32.9,4264,4410,Li-ion
4.434,-682.812,95,32.9,4264,4410,Li-ion
4.434,-665,95,32.9,4264,4410,Li-ion
4.434,-693.437,95,32.9,4266,4410,Li-ion
4.434,-684.687,95,32.9,4266,4410,Li-ion
4.434,-670.937,95,32.9,4266,4410,Li-ion
4.434,-666.875,95,32.9,4268,4410,Li-ion
4.434,-682.187,95,32.9,4268,4410,Li-ion
4.434,-685.625,95,32.8,4268,4410,Li-ion
4.434,-678.125,95,32.8,4268,4410,Li-ion
4.434,-678.75,95,32.8,4270,4410,Li-ion
4.434,-675.625,95,32.8,4270,4410,Li-ion
4.434,-675.937,95,32.8,4270,4410,Li-ion
4.432,-680.625,95,32.8,4272,4410,Li-ion
4.432,-672.187,95,32.8,4272,4410,Li-ion
4.432,-672.812,95,32.8,4272,4410,Li-ion
4.432,-667.187,95,32.8,4274,4410,Li-ion
4.432,-673.437,95,32.8,4274,4410,Li-ion
4.432,-663.125,95,32.8,4274,4410,Li-ion
4.432,-663.125,95,32.8,4274,4410,Li-ion
4.432,-669.687,95,32.8,4276,4410,Li-ion
4.432,-673.125,95,32.8,4276,4410,Li-ion
4.432,-659.375,95,32.8,4276,4410,Li-ion
4.432,-655.625,95,32.8,4278,4410,Li-ion
4.432,-653.75,95,32.8,4278,4410,Li-ion
4.432,-666.562,95,32.8,4278,4410,Li-ion
4.432,-647.812,95,32.8,4278,4410,Li-ion
4.432,-655,95,32.8,4280,4410,Li-ion
4.432,-665.937,95,32.8,4280,4410,Li-ion
4.432,-653.437,95,32.8,4280,4410,Li-ion
4.432,-663.75,95,32.8,4282,4410,Li-ion
4.432,-639.375,95,32.8,4282,4410,Li-ion
4.432,-647.5,95,32.8,4282,4410,Li-ion
4.432,-658.125,95,32.8,4282,4410,Li-ion
4.432,-640,95,32.8,4284,4410,Li-ion
4.432,-645.625,95,32.8,4284,4410,Li-ion
4.432,-636.562,95,32.8,4284,4410,Li-ion
4.432,-641.562,95,32.8,4284,4410,Li-ion
4.432,-637.812,95,32.8,4286,4410,Li-ion
4.432,-642.187,95,32.8,4286,4410,Li-ion
4.432,-648.437,95,32.8,4286,4410,Li-ion
4.432,-640,95,32.8,4288,4410,Li-ion
4.432,-633.437,95,32.8,4288,4410,Li-ion
4.432,-632.812,95,32.8,4288,4410,Li-ion
4.432,-639.687,95,32.8,4288,4410,Li-ion
4.432,-628.437,95,32.8,4290,4410,Li-ion
4.432,-645.625,95,32.8,4290,4410,Li-ion
4.433,-627.812,95,32.7,4290,4410,Li-ion
4.433,-635.312,95,32.7,4290,4410,Li-ion
4.433,-636.562,95,32.7,4292,4410,Li-ion
4.433,-626.875,95,32.7,4292,4410,Li-ion
4.433,-639.062,95,32.7,4292,4410,Li-ion
4.434,-622.812,96,32.8,4294,4410,Li-ion
4.434,-610.937,96,32.8,4294,4410,Li-ion
4.434,-625.312,96,32.8,4294,4410,Li-ion
4.434,-609.375,96,32.8,4294,4410,Li-ion
4.434,-620.312,96,32.8,4296,4410,Li-ion
4.434,-617.187,96,32.8,4296,4410,Li-ion
4.434,-632.812,96,32.8,4296,4410,Li-ion
4.434,-618.437,96,32.8,4296,4410,Li-ion
4.434,-605,96,32.8,4298,4410,Li-ion
4.434,-617.5,96,32.8,4298,4410,Li-ion
4.434,-609.062,96,32.8,4298,4410,Li-ion
4.434,-609.687,96,32.8,4300,4410,Li-ion
4.434,-610.312,96,32.8,4300,4410,Li-ion
4.434,-600.625,96,32.8,4300,4410,Li-ion
4.434,-608.437,96,32.8,4300,4410,Li-ion
4.434,-605,96,32.8,4302,4410,Li-ion
4.434,-602.812,96,32.8,4302,4410,Li-ion
4.434,-611.562,96,32.8,4302,4410,Li-ion
4.434,-599.062,96,32.8,4302,4410,Li-ion
4.434,-602.5,96,32.8,4304,4410,Li-ion
4.434,-604.687,96,32.8,4304,4410,Li-ion
4.434,-598.437,96,32.8,4304,4410,Li-ion
4.434,-611.25,96,32.8,4304,4410,Li-ion
4.434,-596.562,96,32.8,4306,4410,Li-ion
4.434,-604.062,96,32.8,4306,4410,Li-ion
4.434,-608.75,96,32.8,4306,4410,Li-ion
4.434,-604.062,96,32.8,4306,4410,Li-ion
4.434,-587.5,96,32.8,4308,4410,Li-ion
4.434,-597.812,96,32.8,4308,4410,Li-ion
4.434,-596.875,96,32.8,4308,4410,Li-ion
4.434,-581.875,96,32.8,4308,4410,Li-ion
4.434,-591.875,96,32.8,4310,4410,Li-ion
4.434,-591.25,96,32.8,4310,4410,Li-ion
4.432,-598.125,96,32.8,4310,4410,Li-ion
4.432,-602.5,96,32.8,4310,4410,Li-ion
4.432,-585,96,32.8,4312,4410,Li-ion
4.432,-591.562,96,32.8,4312,4410,Li-ion
4.432,-577.812,96,32.8,4312,4410,Li-ion
4.432,-575.312,96,32.8,4312,4410,Li-ion
4.432,-586.875,96,32.8,4314,4410,Li-ion
4.435,-584.375,96,32.7,4314,4410,Li-ion
4.435,-580,96,32.7,4314,4410,Li-ion
4.435,-579.687,96,32.7,4316,4410,Li-ion
4.435,-590,96,32.7,4316,4410,Li-ion
4.435,-570,96,32.7,4316,4410,Li-ion
4.435,-582.812,96,32.7,4316,4410,Li-ion
4.435,-581.875,96,32.7,4318,4410,Li-ion
4.435,-569.062,96,32.7,4318,4410,Li-ion
4.435,-573.437,96,32.7,4318,4410,Li-ion
4.435,-572.5,96,32.7,4318,4410,Li-ion
4.435,-560.312,96,32.7,4318,4410,Li-ion
4.435,-564.375,96,32.7,4320,4410,Li-ion
4.435,-574.062,96,32.7,4320,4410,Li-ion
4.434,-570.937,96,32.8,4320,4410,Li-ion
4.434,-567.812,96,32.8,4320,4410,Li-ion
4.434,-568.437,96,32.8,4322,4410,Li-ion
4.434,-570.937,96,32.8,4322,4410,Li-ion
4.434,-570.312,96,32.8,4322,4410,Li-ion
4.434,-545.937,96,32.8,4322,4410,Li-ion
4.434,-562.812,96,32.8,4324,4410,Li-ion
4.434,-574.062,96,32.8,4324,4410,Li-ion
4.434,-566.562,96,32.8,4324,4410,Li-ion
4.434,-549.687,96,32.8,4324,4410,Li-ion
4.434,-570,96,32.8,4326,4410,Li-ion
4.434,-550.312,96,32.8,4326,4410,Li-ion
4.434,-559.687,96,32.8,4326,4410,Li-ion
4.434,-572.5,96,32.8,4326,4410,Li-ion
4.434,-555.937,96,32.8,4328,4410,Li-ion
4.434,-569.687,96,32.8,4328,4410,Li-ion
4.434,-544.687,96,32.8,4328,4410,Li-ion
4.434,-563.437,96,32.8,4328,4410,Li-ion
4.434,-554.375,96,32.8,4330,4410,Li-ion
4.435,-555.625,96,32.7,4330,4410,Li-ion
4.435,-546.562,96,32.7,4330,4410,Li-ion
4.435,-555,96,32.7,4330,4410,Li-ion
4.435,-550.625,96,32.7,4332,4410,Li-ion
4.435,-547.187,96,32.7,4332,4410,Li-ion
4.435,-543.125,96,32.7,4332,4410,Li-ion
4.435,-548.75,96,32.7,4332,4410,Li-ion
4.435,-554.375,96,32.7,4332,4410,Li-ion
4.435,-540.312,96,32.7,4334,4410,Li-ion
4.435,-541.562,96,32.7,4334,4410,Li-ion
4.435,-541.25,96,32.7,4334,4410,Li-ion
4.435,-546.875,96,32.7,4334,4410,Li-ion
4.435,-538.437,96,32.7,4336,4410,Li-ion
4.435,-544.062,96,32.7,4336,4410,Li-ion
4.435,-531.875,96,32.7,4336,4410,Li-ion
4.435,-539.375,96,32.7,4336,4410,Li-ion
4.435,-533.437,96,32.7,4338,4410,Li-ion
4.435,-532.812,96,32.7,4338,4410,Li-ion
4.435,-543.125,97,32.7,4338,4410,Li-ion
4.433,-530.312,97,32.7,4338,4410,Li-ion
4.433,-530.625,97,32.7,4340,4410,Li-ion
4.433,-519.687,97,32.7,4340,4410,Li-ion
4.433,-529.687,97,32.7,4340,4410,Li-ion
4.434,-523.437,97,32.7,4340,4410,Li-ion
4.434,-526.562,97,32.7,4340,4410,Li-ion
4.434,-531.875,97,32.7,4342,4410,Li-ion
4.434,-531.562,97,32.7,4342,4410,Li-ion
4.434,-517.812,97,32.7,4342,4410,Li-ion
4.434,-521.875,97,32.7,4342,4410,Li-ion
4.434,-525.625,97,32.7,4344,4410,Li-ion
4.434,-518.125,97,32.7,4344,4410,Li-ion
4.434,-512.5,97,32.7,4344,4410,Li-ion
4.434,-518.75,97,32.7,4344,4410,Li-ion
4.434,-524.375,97,32.7,4344,4410,Li-ion
4.434,-517.187,97,32.7,4346,4410,Li-ion
4.434,-523.75,97,32.7,4346,4410,Li-ion
4.434,-516.875,97,32.7,4346,4410,Li-ion
4.434,-511.562,97,32.7,4346,4410,Li-ion
4.434,-515,97,32.7,4348,4410,Li-ion
4.435,-504.062,98,32.7,4354,4410,Li-ion
4.435,-487.5,98,32.7,4354,4410,Li-ion
4.435,-466.25,98,32.7,4354,4410,Li-ion
4.435,-489.062,98,32.7,4356,4410,Li-ion
4.435,-483.75,98,32.6,4356,4410,Li-ion
4.435,-478.437,98,32.6,4356,4410,Li-ion
4.435,-492.812,98,32.6,4356,4410,Li-ion
4.435,-482.187,98,32.6,4356,4410,Li-ion
4.435,-486.562,98,32.6,4358,4410,Li-ion
4.435,-498.75,98,32.6,4358,4410,Li-ion
4.435,-501.25,98,32.6,4358,4410,Li-ion
4.435,-504.687,98,32.6,4358,4410,Li-ion
4.435,-492.187,98,32.6,4360,4410,Li-ion
4.435,-482.187,98,32.6,4360,4410,Li-ion
4.435,-490.937,98,32.6,4360,4410,Li-ion
4.435,-488.75,98,32.6,4360,4410,Li-ion
4.435,-485.937,98,32.6,4360,4410,Li-ion
4.435,-473.75,98,32.6,4362,4410,Li-ion
4.435,-463.437,98,32.6,4362,4410,Li-ion
4.435,-485.312,98,32.6,4362,4410,Li-ion
4.435,-479.375,98,32.6,4362,4410,Li-ion
4.435,-473.125,98,32.6,4362,4410,Li-ion
4.434,-484.375,98,32.7,4364,4410,Li-ion
4.434,-491.562,98,32.7,4364,4410,Li-ion
4.434,-471.875,98,32.7,4364,4410,Li-ion
4.434,-468.75,98,32.7,4364,4410,Li-ion
4.434,-475,98,32.7,4364,4410,Li-ion
4.434,-474.375,98,32.7,4366,4410,Li-ion
4.434,-494.062,98,32.7,4366,4410,Li-ion
4.434,-470.312,98,32.7,4366,4410,Li-ion
4.434,-490.625,98,32.7,4366,4410,Li-ion
4.434,-480,98,32.7,4368,4410,Li-ion
4.434,-486.875,98,32.7,4368,4410,Li-ion
4.434,-476.25,98,32.7,4368,4410,Li-ion
4.434,-474.062,98,32.7,4368,4410,Li-ion
4.434,-469.375,98,32.7,4368,4410,Li-ion
4.434,-470.937,98,32.7,4370,4410,Li-ion
4.434,-478.437,98,32.7,4370,4410,Li-ion
4.434,-472.187,98,32.7,4370,4410,Li-ion
4.434,-468.437,98,32.7,4370,4410,Li-ion
4.434,-450.625,98,32.7,4370,4410,Li-ion
4.434,-462.5,98,32.7,4372,4410,Li-ion
4.434,-475.625,99,33,4372,4410,Li-ion
4.433,-460.937,99,33,4372,4410,Li-ion
4.433,-463.75,99,33,4372,4410,Li-ion
4.433,-479.062,99,33,4372,4410,Li-ion
4.433,-483.125,99,33,4374,4410,Li-ion
4.433,-462.187,99,33,4374,4410,Li-ion
4.433,-459.687,99,33,4374,4410,Li-ion
4.433,-482.187,99,33,4374,4410,Li-ion
4.434,-464.375,99,33.1,4374,4410,Li-ion
4.434,-460.937,99,33.1,4376,4410,Li-ion
4.434,-481.562,99,33.1,4376,4410,Li-ion
4.434,-489.687,99,33.1,4376,4410,Li-ion
4.434,-469.062,99,33.1,4376,4410,Li-ion
4.434,-460.625,99,33.1,4376,4410,Li-ion
4.434,-467.187,99,33.1,4378,4410,Li-ion
4.434,-454.687,99,33.1,4378,4410,Li-ion
4.434,-454.062,99,33.1,4378,4410,Li-ion
4.434,-454.062,99,33.1,4378,4410,Li-ion
4.434,-459.687,99,33.1,4380,4410,Li-ion
4.434,-459.375,99,33.1,4380,4410,Li-ion
4.433,-463.437,99,33.2,4380,4410,Li-ion
4.433,-479.687,99,33.2,4380,4410,Li-ion
4.433,-452.5,99,33.2,4380,4410,Li-ion
4.433,-456.562,99,33.2,4382,4410,Li-ion
4.433,-466.562,99,33.2,4382,4410,Li-ion
4.433,-455.312,99,33.2,4382,4410,Li-ion
4.433,-465.937,99,33.2,4382,4410,Li-ion
4.433,-455.937,99,33.2,4382,4410,Li-ion
4.433,-460.625,99,33.2,4384,4410,Li-ion
4.433,-464.375,99,33.2,4384,4410,Li-ion
4.433,-454.687,99,33.2,4384,4410,Li-ion
4.433,-454.687,99,33.2,4384,4410,Li-ion
4.433,-447.5,99,33.2,4384,4410,Li-ion
4.433,-446.562,99,33.2,4386,4410,Li-ion
4.433,-446.25,99,33.2,4386,4410,Li-ion
4.433,-451.875,99,33.2,4386,4410,Li-ion
4.433,-444.375,99,33.2,4386,4410,Li-ion
4.433,-445.937,99,33.2,4386,4410,Li-ion
4.435,-444.062,100,33.4,4386,4410,Li-ion
4.435,-442.187,100,33.4,4388,4410,Li-ion
4.435,-446.562,100,33.4,4388,4410,Li-ion
4.435,-443.75,100,33.4,4388,4410,Li-ion
4.435,-450.625,100,33.4,4388,4410,Li-ion
4.435,-449.375,100,33.4,4388,4410,Li-ion
4.435,-446.562,100,33.4,4390,4410,Li-ion
4.435,-447.812,100,33.4,4390,4410,Li-ion
4.435,-453.437,100,33.4,4390,4410,Li-ion
4.435,-455.312,100,33.4,4390,4410,Li-ion
4.435,-442.187,100,33.4,4390,4410,Li-ion
4.435,-435,100,33.4,4392,4410,Li-ion
4.435,-426.875,100,33.4,4392,4410,Li-ion
4.435,-442.187,100,33.4,4392,4410,Li-ion
4.435,-441.562,100,33.4,4392,4410,Li-ion
4.435,-440.937,100,33.4,4392,4410,Li-ion
4.435,-430.625,100,33.4,4394,4410,Li-ion
4.435,-437.187,100,33.4,4394,4410,Li-ion
4.435,-431.875,100,33.4,4394,4410,Li-ion
4.435,-446.875,100,33.4,4394,4410,Li-ion
4.434,-441.875,100,33.4,4394,4410,Li-ion
4.434,-440.937,100,33.4,4396,4410,Li-ion
4.434,-452.187,100,33.4,4396,4410,Li-ion
4.434,-430.937,100,33.4,4396,4410,Li-ion
4.434,-440.625,100,33.4,4396,4410,Li-ion
4.434,-425,100,33.4,4396,4410,Li-ion
4.435,-439.687,100,33.4,4396,4410,Li-ion
4.435,-423.75,100,33.4,4398,4410,Li-ion
4.435,-423.75,100,33.4,4398,4410,Li-ion
4.435,-426.25,100,33.4,4398,4410,Li-ion
4.435,-432.812,100,33.4,4398,4410,Li-ion
4.435,-426.25,100,33.4,4398,4410,Li-ion
4.435,-427.812,100,33.4,4400,4410,Li-ion
4.435,-425,100,33.4,4400,4410,Li-ion
4.435,-425.312,100,33.4,4400,4410,Li-ion
4.435,-424.062,100,33.4,4400,4410,Li-ion
4.435,-413.125,100,33.4,4400,4410,Li-ion
4.435,-423.75,100,33.4,4402,4410,Li-ion
4.435,-415.625,100,33.4,4402,4410,Li-ion
4.434,-422.187,100,33.3,4402,4410,Li-ion
4.434,-415.937,100,33.3,4402,4410,Li-ion
4.434,-427.187,100,33.3,4402,4410,Li-ion
4.434,-420.937,100,33.3,4402,4410,Li-ion
4.434,-427.812,100,33.3,4404,4410,Li-ion
4.434,-408.75,100,33.3,4404,4410,Li-ion
4.434,-417.187,100,33.3,4404,4410,Li-ion
4.434,-416.25,100,33.3,4404,4410,Li-ion
4.434,-409.062,100,33.3,4404,4410,Li-ion
4.434,-422.187,100,33.3,4406,4410,Li-ion
4.434,-414.062,100,33.3,4406,4410,Li-ion
4.434,-395.312,100,33.3,4406,4410,Li-ion
4.434,-415,100,33.3,4406,4410,Li-ion
4.434,-413.437,100,33.3,4406,4410,Li-ion
4.434,-408.125,100,33.3,4406,4410,Li-ion
4.434,-429.062,100,33.3,4408,4410,Li-ion
4.434,-397.187,100,33.3,4408,4410,Li-ion
4.434,-417.812,100,33.3,4408,4410,Li-ion
4.434,-418.125,100,33.3,4408,4410,Li-ion
4.434,-406.25,100,33.3,4408,4410,Li-ion
4.434,-398.437,100,33.3,4408,4410,Li-ion
4.434,-377.5,100,33.3,4410,4410,Li-ion
4.434,-408.437,100,33.3,4410,4410,Li-ion
4.434,-402.5,100,33.3,4410,4410,Li-ion
4.434,-398.75,100,33.3,4410,4410,Li-ion
4.434,-410.625,100,33.3,4410,4410,Li-ion
4.434,-395.937,100,33.3,4412,4410,Li-ion
4.434,-405.312,100,33.3,4412,4410,Li-ion
4.434,-400,100,33.3,4412,4410,Li-ion
4.434,-404.375,100,33.3,4412,4410,Li-ion
4.434,-403.125,100,33.3,4412,4410,Li-ion
4.434,-410,100,33.3,4412,4410,Li-ion
4.434,-392.5,100,33.3,4414,4410,Li-ion
4.434,-391.562,100,33.3,4414,4410,Li-ion
4.434,-396.562,100,33.3,4414,4410,Li-ion
4.434,-395.625,100,33.3,4414,4410,Li-ion
4.434,-399.687,100,33.3,4414,4410,Li-ion
4.434,-402.5,100,33.3,4414,4410,Li-ion
4.436,-381.875,100,33.2,4416,4410,Li-ion
4.436,-387.5,100,33.2,4416,4410,Li-ion
4.436,-401.25,100,33.2,4416,4410,Li-ion
4.436,-385.312,100,33.2,4416,4410,Li-ion
4.436,-398.125,100,33.2,4416,4410,Li-ion
4.436,-373.75,100,33.2,4416,4410,Li-ion
4.436,-386.25,100,33.2,4418,4410,Li-ion
4.436,-398.75,100,33.2,4418,4410,Li-ion
4.436,-391.562,100,33.2,4418,4410,Li-ion
4.436,-386.875,100,33.2,4418,4410,Li-ion
4.436,-387.187,100,33.2,4418,4410,Li-ion
4.436,-391.562,100,33.2,4418,4410,Li-ion
4.436,-381.562,100,33.2,4420,4410,Li-ion
4.436,-371.562,100,33.2,4420,4410,Li-ion
4.436,-374.687,100,33.2,4420,4410,Li-ion
4.436,-389.062,100,33.2,4420,4410,Li-ion
4.436,-378.75,100,33.2,4420,4410,Li-ion
4.436,-394.687,100,33.2,4422,4410,Li-ion
4.436,-382.5,100,33.2,4422,4410,Li-ion
4.436,-384.375,100,33.2,4422,4410,Li-ion
4.434,-381.562,100,33.2,4422,4410,Li-ion
4.434,-374.062,100,33.2,4422,4410,Li-ion
4.436,-373.75,100,33.1,4422,4410,Li-ion
4.436,-388.75,100,33.1,4424,4410,Li-ion
4.436,-377.187,100,33.1,4424,4410,Li-ion