File: dataset/s21_fe.txt
voltage(V),current(mA),battery_percent,battery_temperature(Celsius),remaining_battery_charge(mAh),battery_capacity(mAh),battery_technology
3.36,1595,1,37.1,0,4370,Li-ion
3.36,-884,1,37.1,0,4370,Li-ion
3.36,-1782,1,37.1,0,4370,Li-ion
3.517,-1733,1,36.7,0,4370,Li-ion
3.517,-4654,1,36.7,0,4370,Li-ion
3.697,-4897,1,37,0,4370,Li-ion
3.697,-4800,1,37,0,4370,Li-ion
3.697,-4819,1,37,0,4370,Li-ion
3.745,-4817,1,37.5,8.264,4370,Li-ion
3.745,-4863,1,37.5,8.264,4370,Li-ion
3.77,-4912,1,37.8,20.66,4370,Li-ion
3.77,-4771,1,37.8,20.66,4370,Li-ion
3.807,-4669,1,38.1,37.188,4370,Li-ion
3.807,-4898,1,38.1,37.188,4370,Li-ion
3.807,-4789,1,38.1,37.188,4370,Li-ion
3.828,-4912,1,38.3,49.584,4370,Li-ion
3.828,-4875,1,38.3,49.584,4370,Li-ion
3.851,-4798,1,38.5,61.98,4370,Li-ion
3.851,-4877,1,38.5,61.98,4370,Li-ion
3.851,-4868,1,38.5,61.98,4370,Li-ion
3.868,-4887,2,38.6,78.508,4370,Li-ion
3.868,-4870,2,38.6,78.508,4370,Li-ion
3.885,-4776,2,38.7,90.904,4370,Li-ion
3.885,-4775,2,38.7,90.904,4370,Li-ion
3.885,-4936,2,38.7,90.904,4370,Li-ion
3.897,-4368,2,38.8,103.3,4370,Li-ion
3.897,-4848,2,38.8,103.3,4370,Li-ion
3.911,-4886,3,38.9,119.828,4370,Li-ion
3.911,-4785,3,38.9,119.828,4370,Li-ion
3.911,-4797,3,38.9,119.828,4370,Li-ion
3.921,-4869,3,39,132.224,4370,Li-ion
3.921,-4920,3,39,132.224,4370,Li-ion
3.932,-4852,3,39.1,148.752,4370,Li-ion
3.932,-4638,3,39.1,148.752,4370,Li-ion
3.935,-4830,4,39.1,161.148,4370,Li-ion
3.935,-4819,4,39.1,161.148,4370,Li-ion
3.935,-4830,4,39.1,161.148,4370,Li-ion
3.941,-4878,4,39.2,173.544,4370,Li-ion
3.941,-4808,4,39.2,173.544,4370,Li-ion
3.946,-4412,4,39.3,190.072,4370,Li-ion
3.946,-4790,4,39.3,190.072,4370,Li-ion
3.946,-4707,4,39.3,190.072,4370,Li-ion
3.945,-4905,5,39.4,202.468,4370,Li-ion
3.945,-4785,5,39.4,202.468,4370,Li-ion
3.949,-4881,5,39.4,218.996,4370,Li-ion
3.949,-4757,5,39.4,218.996,4370,Li-ion
3.949,-4910,5,39.4,218.996,4370,Li-ion
3.951,-4867,5,39.5,231.392,4370,Li-ion
3.951,-4791,5,39.5,231.392,4370,Li-ion
3.951,-4896,6,39.6,243.788,4370,Li-ion
3.951,-4873,6,39.6,243.788,4370,Li-ion
3.951,-4873,6,39.6,243.788,4370,Li-ion
3.955,-4960,6,39.7,260.316,4370,Li-ion
3.955,-4893,6,39.7,260.316,4370,Li-ion
3.958,-4958,6,39.7,272.712,4370,Li-ion
3.958,-4828,6,39.7,272.712,4370,Li-ion
3.958,-4810,7,39.8,285.108,4370,Li-ion
3.958,-4805,7,39.8,285.108,4370,Li-ion
3.958,-4801,7,39.8,285.108,4370,Li-ion
3.959,-4827,7,39.9,301.636,4370,Li-ion
3.959,-4815,7,39.9,301.636,4370,Li-ion
3.961,-4835,7,39.9,314.032,4370,Li-ion
3.961,-4658,7,39.9,314.032,4370,Li-ion
3.961,-4818,7,39.9,314.032,4370,Li-ion
3.964,-4860,8,40,326.428,4370,Li-ion
3.964,-4814,8,40,326.428,4370,Li-ion
3.966,-4807,8,40.1,342.956,4370,Li-ion
3.966,-4869,8,40.1,342.956,4370,Li-ion
3.966,-4851,8,40.1,342.956,4370,Li-ion
3.968,-4851,9,40.2,355.352,4370,Li-ion
3.968,-4828,9,40.2,355.352,4370,Li-ion
3.968,-4860,9,40.2,371.88,4370,Li-ion
3.968,-4848,9,40.2,371.88,4370,Li-ion
3.968,-4688,9,40.2,371.88,4370,Li-ion
3.96,-4805,9,40.3,384.276,4370,Li-ion
3.96,-4862,9,40.3,384.276,4370,Li-ion
3.973,-4852,10,40.4,396.672,4370,Li-ion
3.973,-4852,10,40.4,396.672,4370,Li-ion
3.973,-4753,10,40.4,396.672,4370,Li-ion
3.979,-4866,10,40.5,413.2,4370,Li-ion
3.979,-4884,10,40.5,413.2,4370,Li-ion
3.978,-4811,10,40.6,425.596,4370,Li-ion
3.978,-4857,10,40.6,425.596,4370,Li-ion
3.98,-4539,11,40.6,437.992,4370,Li-ion
3.98,-4783,11,40.6,437.992,4370,Li-ion
3.98,-4879,11,40.6,437.992,4370,Li-ion
3.983,-4828,11,40.7,454.52,4370,Li-ion
3.983,-4755,11,40.7,454.52,4370,Li-ion
3.978,-4843,11,40.8,466.916,4370,Li-ion
3.978,-4793,11,40.8,466.916,4370,Li-ion
3.978,-4859,11,40.8,466.916,4370,Li-ion
3.985,-4931,12,40.9,483.444,4370,Li-ion
3.985,-4813,12,40.9,483.444,4370,Li-ion
3.989,-4773,12,40.9,495.84,4370,Li-ion
3.989,-4792,12,40.9,495.84,4370,Li-ion
3.989,-4852,12,40.9,495.84,4370,Li-ion
3.992,-4847,12,41,508.236,4370,Li-ion
3.992,-4771,12,41,508.236,4370,Li-ion
3.993,-4889,13,40.3,524.764,4370,Li-ion
3.993,-4920,13,40.3,524.764,4370,Li-ion
3.993,-4818,13,40.3,524.764,4370,Li-ion
3.995,-4361,13,40.1,537.16,4370,Li-ion
3.995,-1750,13,40.1,537.16,4370,Li-ion
3.876,-3581,13,40,549.556,4370,Li-ion
3.876,-4715,13,40,549.556,4370,Li-ion
3.876,-4808,13,40,549.556,4370,Li-ion
3.994,-4828,13,40,561.952,4370,Li-ion
3.994,-4702,13,40,561.952,4370,Li-ion
3.997,-4688,14,40,574.348,4370,Li-ion
3.997,-4877,14,40,574.348,4370,Li-ion
4,-4496,14,40.2,586.744,4370,Li-ion
4,-4840,14,40.2,586.744,4370,Li-ion
4,-4864,14,40.2,586.744,4370,Li-ion
3.995,-4791,14,40.4,599.14,4370,Li-ion
3.995,-4873,14,40.4,599.14,4370,Li-ion
4.007,-4718,15,40.5,615.668,4370,Li-ion
4.007,-4821,15,40.5,615.668,4370,Li-ion
4.007,-4824,15,40.5,615.668,4370,Li-ion
4.008,-4844,15,40.6,628.064,4370,Li-ion
4.008,-4771,15,40.6,628.064,4370,Li-ion
4.013,-4900,15,40.7,640.46,4370,Li-ion
4.013,-4766,15,40.7,640.46,4370,Li-ion
4.013,-4838,15,40.7,640.46,4370,Li-ion
4.012,-4682,16,40.8,656.988,4370,Li-ion
4.012,-4884,16,40.8,656.988,4370,Li-ion
4.016,-4794,16,40.9,669.384,4370,Li-ion
4.016,-4827,16,40.9,669.384,4370,Li-ion
4.016,-4900,16,40.9,669.384,4370,Li-ion
4.011,-4777,16,41,685.912,4370,Li-ion
4.011,-4804,16,41,685.912,4370,Li-ion
4.02,-4792,17,41,698.308,4370,Li-ion
4.02,-4775,17,41,698.308,4370,Li-ion
4.023,-4790,17,41.1,710.704,4370,Li-ion
4.023,-4721,17,41.1,710.704,4370,Li-ion
4.023,-4826,17,41.1,710.704,4370,Li-ion
4.022,-4822,17,41.2,727.232,4370,Li-ion
4.022,-4779,17,41.2,727.232,4370,Li-ion
4.028,-4761,18,41.2,739.628,4370,Li-ion
4.028,-4787,18,41.2,739.628,4370,Li-ion
4.028,-4807,18,41.2,739.628,4370,Li-ion
4.025,-4239,18,41.3,752.024,4370,Li-ion
4.025,-1468,18,41.3,752.024,4370,Li-ion
3.89,-1853,18,41.3,768.552,4370,Li-ion
3.89,-1886,18,41.3,768.552,4370,Li-ion
3.89,-4582,18,41.3,768.552,4370,Li-ion
4.012,-4793,18,41,776.816,4370,Li-ion
4.012,-4801,18,41,776.816,4370,Li-ion
4.023,-4851,19,41.1,780.948,4370,Li-ion
4.023,-4807,19,41.1,780.948,4370,Li-ion
4.023,-4841,19,41.1,780.948,4370,Li-ion
4.029,-4275,19,41.2,797.476,4370,Li-ion
4.029,-4827,19,41.2,797.476,4370,Li-ion
4.032,-4819,19,41.3,809.872,4370,Li-ion
4.032,-4863,19,41.3,809.872,4370,Li-ion
4.032,-4894,19,41.3,809.872,4370,Li-ion
4.033,-4814,20,41.5,822.268,4370,Li-ion
4.033,-1700,20,41.5,822.268,4370,Li-ion
3.9,-1861,20,41.5,838.796,4370,Li-ion
3.9,-1848,20,41.5,838.796,4370,Li-ion
3.9,-1802,20,41.5,838.796,4370,Li-ion
3.895,-1836,20,41.1,847.06,4370,Li-ion
3.895,-1895,20,41.1,847.06,4370,Li-ion
3.894,-1908,20,40.8,855.324,4370,Li-ion
3.894,-1879,20,40.8,855.324,4370,Li-ion
3.892,-1840,20,40.4,859.456,4370,Li-ion
3.892,-1831,20,40.4,859.456,4370,Li-ion
3.892,-1855,20,40.4,859.456,4370,Li-ion
3.888,-1859,21,40.1,863.588,4370,Li-ion
3.888,-1839,21,40.1,863.588,4370,Li-ion
3.889,-1827,21,40,867.72,4370,Li-ion
3.889,-1734,21,40,867.72,4370,Li-ion
3.889,-1881,21,40,867.72,4370,Li-ion
3.889,-1875,21,39.8,875.984,4370,Li-ion
3.889,-1886,21,39.8,875.984,4370,Li-ion
3.889,-1825,21,39.6,880.116,4370,Li-ion
3.889,-1910,21,39.6,880.116,4370,Li-ion
3.889,-1877,21,39.6,880.116,4370,Li-ion
3.889,-2151,21,39.5,884.248,4370,Li-ion
3.889,-4861,21,39.5,884.248,4370,Li-ion
4.025,-4874,21,39.5,888.38,4370,Li-ion
4.025,-4888,21,39.5,888.38,4370,Li-ion
4.025,-4853,21,39.5,888.38,4370,Li-ion
4.036,-4800,22,39.7,900.776,4370,Li-ion
4.036,-4778,22,39.7,900.776,4370,Li-ion
4.041,-4876,22,40,913.172,4370,Li-ion
4.041,-4813,22,40,913.172,4370,Li-ion
4.042,-4838,22,40.2,929.7,4370,Li-ion
4.042,-4886,22,40.2,929.7,4370,Li-ion
4.042,-4883,22,40.2,929.7,4370,Li-ion
4.048,-4791,23,40.4,942.096,4370,Li-ion
4.048,-4838,23,40.4,942.096,4370,Li-ion
4.047,-4841,23,40.6,954.492,4370,Li-ion
4.047,-4801,23,40.6,954.492,4370,Li-ion
4.047,-4795,23,40.6,954.492,4370,Li-ion
4.05,-4950,23,40.8,971.02,4370,Li-ion
4.05,-4907,23,40.8,971.02,4370,Li-ion
4.053,-4861,24,40.9,983.416,4370,Li-ion
4.053,-4848,24,40.9,983.416,4370,Li-ion
4.053,-4684,24,40.9,983.416,4370,Li-ion
4.054,-4805,24,41,999.944,4370,Li-ion
4.054,-4595,24,41,999.944,4370,Li-ion
4.055,-4875,24,41.2,1012.34,4370,Li-ion
4.055,-4775,24,41.2,1012.34,4370,Li-ion
4.055,-4819,24,41.2,1012.34,4370,Li-ion
4.059,-4852,25,41.3,1024.736,4370,Li-ion
4.059,-4891,25,41.3,1024.736,4370,Li-ion
4.057,-4861,25,41.4,1041.264,4370,Li-ion
4.057,-4743,25,41.4,1041.264,4370,Li-ion
4.057,-4850,25,41.4,1053.66,4370,Li-ion
4.058,-4821,25,41.5,1053.66,4370,Li-ion
4.058,-1860,25,41.5,1053.66,4370,Li-ion
3.927,-1893,26,41.5,1070.188,4370,Li-ion
3.927,-1878,26,41.5,1070.188,4370,Li-ion
3.917,-1808,26,41.1,1078.452,4370,Li-ion
3.917,-1876,26,41.1,1078.452,4370,Li-ion
3.917,-1841,26,41.1,1078.452,4370,Li-ion
3.916,-1825,26,40.7,1082.584,4370,Li-ion
3.916,-1896,26,40.7,1082.584,4370,Li-ion
3.913,-1803,26,40.4,1086.716,4370,Li-ion
3.913,-1873,26,40.4,1086.716,4370,Li-ion
3.913,-1877,26,40.4,1086.716,4370,Li-ion
3.91,-1858,26,40.1,1094.98,4370,Li-ion
3.91,-1863,26,40.1,1094.98,4370,Li-ion
3.912,-1863,26,39.9,1099.112,4370,Li-ion
3.912,-1855,26,39.9,1099.112,4370,Li-ion
3.912,-1825,26,39.9,1099.112,4370,Li-ion
3.908,-1851,26,39.8,1103.244,4370,Li-ion
3.908,-1858,26,39.8,1103.244,4370,Li-ion
3.91,-1849,27,39.6,1107.376,4370,Li-ion
3.91,-1840,27,39.6,1107.376,4370,Li-ion
3.91,-1752,27,39.6,1107.376,4370,Li-ion
3.91,-1820,27,39.5,1115.64,4370,Li-ion
3.91,-2161,27,39.5,1115.64,4370,Li-ion
3.979,-4744,27,39.4,1119.772,4370,Li-ion
3.979,-4663,27,39.4,1119.772,4370,Li-ion
4.05,-4742,27,39.5,1123.904,4370,Li-ion
4.05,-4774,27,39.5,1123.904,4370,Li-ion
4.05,-4643,27,39.5,1123.904,4370,Li-ion
4.049,-4262,27,39.8,1140.432,4370,Li-ion
4.049,-4891,27,39.8,1140.432,4370,Li-ion
4.054,-4767,28,40.1,1152.828,4370,Li-ion
4.054,-4802,28,40.1,1152.828,4370,Li-ion
4.054,-4800,28,40.1,1152.828,4370,Li-ion
4.063,-4881,28,40.5,1165.224,4370,Li-ion
4.063,-4787,28,40.5,1165.224,4370,Li-ion
4.067,-4852,28,40.7,1177.62,4370,Li-ion
4.067,-4800,28,40.7,1177.62,4370,Li-ion
4.067,-4793,28,40.7,1177.62,4370,Li-ion
4.065,-4825,29,40.9,1194.148,4370,Li-ion
4.065,-4865,29,40.9,1194.148,4370,Li-ion
4.065,-4767,29,41.1,1206.544,4370,Li-ion
4.065,-4844,29,41.1,1206.544,4370,Li-ion
4.072,-4700,29,41.2,1223.072,4370,Li-ion
4.072,-4765,29,41.2,1223.072,4370,Li-ion
4.072,-4681,29,41.2,1223.072,4370,Li-ion
4.071,-4789,30,41.4,1235.468,4370,Li-ion
4.071,-4655,30,41.4,1235.468,4370,Li-ion
4.069,-4701,30,41.5,1247.864,4370,Li-ion
4.069,-1740,30,41.5,1247.864,4370,Li-ion
4.069,-1787,30,41.5,1247.864,4370,Li-ion
3.936,-1736,30,41.4,1264.392,4370,Li-ion
3.936,-1780,30,41.4,1264.392,4370,Li-ion
3.916,-1727,30,41,1268.524,4370,Li-ion
3.916,-1744,30,41,1268.524,4370,Li-ion
3.916,-1763,31,41,1276.788,4370,Li-ion
3.922,-1818,31,40.7,1276.788,4370,Li-ion
3.922,-1794,31,40.7,1276.788,4370,Li-ion
3.922,-1806,31,40.4,1280.92,4370,Li-ion
3.922,-1744,31,40.4,1280.92,4370,Li-ion
3.922,-1761,31,40.2,1285.052,4370,Li-ion
3.922,-1820,31,40.2,1285.052,4370,Li-ion
3.922,-1780,31,40.2,1285.052,4370,Li-ion
3.921,-1809,31,40,1289.184,4370,Li-ion
3.921,-1788,31,40,1289.184,4370,Li-ion
3.921,-1844,31,39.9,1293.316,4370,Li-ion
3.921,-1861,31,39.9,1293.316,4370,Li-ion
3.921,-1781,31,39.9,1293.316,4370,Li-ion
3.919,-1794,31,39.7,1301.58,4370,Li-ion
3.919,-1833,31,39.7,1301.58,4370,Li-ion
3.92,-1813,31,39.6,1305.712,4370,Li-ion
3.92,-1808,31,39.6,1305.712,4370,Li-ion
3.922,-1765,31,39.5,1309.844,4370,Li-ion
3.922,-2200,31,39.5,1309.844,4370,Li-ion
3.922,-4789,31,39.5,1309.844,4370,Li-ion
4.054,-4757,32,39.4,1313.976,4370,Li-ion
4.054,-4808,32,39.4,1313.976,4370,Li-ion
4.067,-4835,32,39.7,1322.24,4370,Li-ion
4.067,-4843,32,39.7,1322.24,4370,Li-ion
4.067,-4823,32,39.7,1322.24,4370,Li-ion
4.067,-4718,32,40,1338.768,4370,Li-ion
4.067,-4768,32,40,1338.768,4370,Li-ion
4.07,-4808,33,40.2,1351.164,4370,Li-ion
4.07,-4651,33,40.2,1351.164,4370,Li-ion
4.071,-4461,33,40.4,1363.56,4370,Li-ion
4.071,-4630,33,40.4,1363.56,4370,Li-ion
4.071,-4609,33,40.4,1363.56,4370,Li-ion
4.071,-4587,33,40.7,1380.088,4370,Li-ion
4.071,-4603,33,40.7,1380.088,4370,Li-ion
4.05,-4429,34,40.8,1392.484,4370,Li-ion
4.05,-4495,34,40.8,1392.484,4370,Li-ion
4.05,-4558,34,40.8,1392.484,4370,Li-ion
4.068,-4518,34,41,1404.88,4370,Li-ion
4.068,-4502,34,41,1404.88,4370,Li-ion
4.068,-4492,34,41,1417.276,4370,Li-ion
4.068,-4471,34,41,1417.276,4370,Li-ion
4.068,-4468,34,41,1417.276,4370,Li-ion
4.069,-4529,34,41.1,1429.672,4370,Li-ion
4.069,-4453,34,41.1,1429.672,4370,Li-ion
4.071,-4435,35,41.2,1442.068,4370,Li-ion
4.071,-4282,35,41.2,1442.068,4370,Li-ion
4.066,-4344,35,41.3,1458.596,4370,Li-ion
4.066,-4421,35,41.3,1458.596,4370,Li-ion
4.066,-4355,35,41.3,1458.596,4370,Li-ion
4.069,-4373,35,41.4,1470.992,4370,Li-ion
4.069,-4310,35,41.4,1470.992,4370,Li-ion
4.07,-4398,36,41.4,1483.388,4370,Li-ion
4.07,-3949,36,41.4,1483.388,4370,Li-ion
4.07,-4277,36,41.4,1483.388,4370,Li-ion
4.071,-4286,36,41.5,1495.784,4370,Li-ion
4.071,-2099,36,41.5,1495.784,4370,Li-ion
3.974,-2170,36,41.5,1508.18,4370,Li-ion
3.974,-2117,36,41.5,1508.18,4370,Li-ion
3.967,-1957,36,41.2,1516.444,4370,Li-ion
3.967,-2112,36,41.2,1516.444,4370,Li-ion
3.967,-2143,36,41.2,1516.444,4370,Li-ion
3.965,-2142,37,40.9,1520.576,4370,Li-ion
3.965,-2130,37,40.9,1520.576,4370,Li-ion
3.958,-2127,37,40.7,1528.84,4370,Li-ion
3.958,-2105,37,40.7,1528.84,4370,Li-ion
3.958,-2128,37,40.7,1528.84,4370,Li-ion
3.959,-2131,37,40.4,1532.972,4370,Li-ion
3.959,-2099,37,40.4,1532.972,4370,Li-ion
3.961,-2144,37,40.3,1541.236,4370,Li-ion
3.961,-2142,37,40.3,1541.236,4370,Li-ion
3.917,-1421,37,40.1,1545.368,4370,Li-ion
3.917,-1880,37,40.1,1545.368,4370,Li-ion
3.917,-2109,37,40.1,1545.368,4370,Li-ion
3.939,-2127,37,40,1553.632,4370,Li-ion
3.939,-2158,37,40,1553.632,4370,Li-ion
3.961,-2057,37,39.9,1557.764,4370,Li-ion
3.961,-2144,37,39.9,1557.764,4370,Li-ion
3.961,-2094,37,39.9,1557.764,4370,Li-ion
3.961,-2154,38,39.8,1566.028,4370,Li-ion
3.961,-2010,38,39.8,1566.028,4370,Li-ion
3.961,-2131,38,39.7,1570.16,4370,Li-ion
3.961,-2115,38,39.7,1570.16,4370,Li-ion
3.961,-2157,38,39.7,1570.16,4370,Li-ion
3.961,-2118,38,39.6,1578.424,4370,Li-ion
3.961,-2168,38,39.6,1578.424,4370,Li-ion
3.961,-2115,38,39.6,1582.556,4370,Li-ion
3.961,-2160,38,39.6,1582.556,4370,Li-ion
3.961,-2071,38,39.5,1590.82,4370,Li-ion
3.961,-4614,38,39.5,1590.82,4370,Li-ion
3.961,-4542,38,39.5,1590.82,4370,Li-ion
4.074,-4451,38,39.5,1594.952,4370,Li-ion
4.074,-4274,38,39.5,1594.952,4370,Li-ion
4.071,-4286,39,39.8,1607.348,4370,Li-ion
4.071,-4253,39,39.8,1607.348,4370,Li-ion
4.071,-4115,39,39.8,1607.348,4370,Li-ion
4.069,-4116,39,40,1619.744,4370,Li-ion
4.069,-4129,39,40,1619.744,4370,Li-ion
4.071,-4064,39,40.1,1632.14,4370,Li-ion
4.071,-4012,39,40.1,1632.14,4370,Li-ion
4.069,-4026,40,40.2,1640.404,4370,Li-ion
4.069,-3974,40,40.2,1640.404,4370,Li-ion
4.069,-3990,40,40.2,1640.404,4370,Li-ion
4.066,-3981,40,40.3,1652.8,4370,Li-ion
4.066,-3929,40,40.3,1652.8,4370,Li-ion
4.069,-3443,40,40.4,1665.196,4370,Li-ion
4.069,-3946,40,40.4,1665.196,4370,Li-ion
4.069,-3755,40,40.4,1665.196,4370,Li-ion
4.069,-3868,40,40.4,1677.592,4370,Li-ion
4.069,-3888,40,40.4,1677.592,4370,Li-ion
4.068,-3944,41,40.5,1689.988,4370,Li-ion
4.068,-3893,41,40.5,1689.988,4370,Li-ion
4.071,-3805,41,40.5,1698.252,4370,Li-ion
4.071,-3960,41,40.5,1698.252,4370,Li-ion
4.071,-3907,41,40.5,1698.252,4370,Li-ion
4.072,-3897,41,40.6,1710.648,4370,Li-ion
4.072,-3921,41,40.6,1710.648,4370,Li-ion
4.075,-3935,41,40.6,1723.044,4370,Li-ion
4.075,-3869,41,40.6,1723.044,4370,Li-ion
4.075,-3845,41,40.6,1723.044,4370,Li-ion
4.075,-3931,42,40.6,1731.308,4370,Li-ion
4.075,-3914,42,40.6,1731.308,4370,Li-ion
4.077,-3770,42,40.7,1743.704,4370,Li-ion
4.077,-3911,42,40.7,1743.704,4370,Li-ion
4.077,-3894,42,40.7,1743.704,4370,Li-ion
4.075,-3929,42,40.7,1756.1,4370,Li-ion
4.075,-4056,42,40.7,1756.1,4370,Li-ion
4.079,-3906,43,40.8,1768.496,4370,Li-ion
4.079,-3915,43,40.8,1768.496,4370,Li-ion
4.081,-3830,43,40.8,1776.76,4370,Li-ion
4.081,-3910,43,40.8,1776.76,4370,Li-ion
4.081,-3957,43,40.8,1776.76,4370,Li-ion
4.081,-3965,43,40.9,1789.156,4370,Li-ion
4.081,-3907,43,40.9,1789.156,4370,Li-ion
4.079,-3827,43,40.9,1801.552,4370,Li-ion
4.079,-3962,43,40.9,1801.552,4370,Li-ion
4.079,-3979,43,40.9,1801.552,4370,Li-ion
4.086,-4009,44,41,1813.948,4370,Li-ion
4.086,-3925,44,41,1813.948,4370,Li-ion
4.085,-4005,44,41,1822.212,4370,Li-ion
4.085,-3948,44,41,1822.212,4370,Li-ion
4.089,-3820,44,41,1834.608,4370,Li-ion
4.089,-3925,44,41,1834.608,4370,Li-ion
4.089,-3928,44,41,1834.608,4370,Li-ion
4.088,-3964,45,41.1,1847.004,4370,Li-ion
4.088,-3883,45,41.1,1847.004,4370,Li-ion
4.09,-3859,45,41.1,1859.4,4370,Li-ion
4.09,-3823,45,41.1,1859.4,4370,Li-ion
4.09,-3892,45,41.1,1859.4,4370,Li-ion
4.09,-3943,45,41.2,1867.664,4370,Li-ion
4.09,-4004,45,41.2,1867.664,4370,Li-ion
4.085,-3902,45,41.2,1880.06,4370,Li-ion
4.085,-3883,45,41.2,1880.06,4370,Li-ion
4.085,-3923,45,41.2,1880.06,4370,Li-ion
4.095,-3853,46,41.2,1892.456,4370,Li-ion
4.095,-3940,46,41.2,1892.456,4370,Li-ion
4.095,-3860,46,41.3,1904.852,4370,Li-ion
4.095,-3902,46,41.3,1904.852,4370,Li-ion
4.095,-3939,46,41.3,1913.116,4370,Li-ion
4.095,-3792,46,41.3,1913.116,4370,Li-ion
4.095,-3938,46,41.3,1913.116,4370,Li-ion
4.097,-3925,46,41.4,1925.512,4370,Li-ion
4.097,-3278,46,41.4,1925.512,4370,Li-ion
4.085,-3411,47,41.4,1937.908,4370,Li-ion
4.085,-3225,47,41.4,1937.908,4370,Li-ion
4.085,-3615,47,41.4,1937.908,4370,Li-ion
4.084,-1438,47,41.6,1946.172,4370,Li-ion
4.084,-1722,47,41.6,1946.172,4370,Li-ion
3.998,-1841,47,41.7,1954.436,4370,Li-ion
3.998,-1837,47,41.7,1954.436,4370,Li-ion
3.998,-1855,47,41.7,1954.436,4370,Li-ion
4.001,-1341,47,41.6,1962.7,4370,Li-ion
4.001,-1892,47,41.6,1962.7,4370,Li-ion
4,-1941,47,41.4,1966.832,4370,Li-ion
4,-1926,47,41.4,1966.832,4370,Li-ion
4,-1870,47,41.3,1970.964,4370,Li-ion
4,-1941,47,41.3,1970.964,4370,Li-ion
4,-1936,47,41.3,1970.964,4370,Li-ion
4,-1915,48,41.1,1979.228,4370,Li-ion
4,-1867,48,41.1,1979.228,4370,Li-ion
4.001,-1811,48,41,1983.36,4370,Li-ion
4.001,-1929,48,41,1983.36,4370,Li-ion
4.001,-1792,48,41,1983.36,4370,Li-ion
3.999,-1905,48,40.8,1987.492,4370,Li-ion
3.999,-1910,48,40.8,1987.492,4370,Li-ion
3.995,-1885,48,40.7,1995.756,4370,Li-ion
3.995,-1684,48,40.7,1995.756,4370,Li-ion
3.995,-1934,48,40.7,1995.756,4370,Li-ion
4.001,-1929,48,40.5,1999.888,4370,Li-ion
4.001,-1940,48,40.5,1999.888,4370,Li-ion
3.999,-1920,48,40.4,2004.02,4370,Li-ion
3.999,-1929,48,40.4,2004.02,4370,Li-ion
3.995,-1834,48,40.3,2008.152,4370,Li-ion
3.995,-1897,48,40.3,2008.152,4370,Li-ion
3.995,-1945,48,40.3,2008.152,4370,Li-ion
4.002,-1815,48,40.2,2016.416,4370,Li-ion
4.002,-1914,48,40.2,2016.416,4370,Li-ion
4.001,-1965,49,40,2020.548,4370,Li-ion
4.001,-1765,49,40,2020.548,4370,Li-ion
4.001,-1927,49,40,2020.548,4370,Li-ion
4.002,-1982,49,40,2024.68,4370,Li-ion
4.002,-1895,49,40,2024.68,4370,Li-ion
4.002,-1956,49,39.9,2032.944,4370,Li-ion
4.002,-1930,49,39.9,2032.944,4370,Li-ion
4.005,-1835,49,39.8,2037.076,4370,Li-ion
4.005,-1922,49,39.8,2037.076,4370,Li-ion
4.005,-1916,49,39.8,2037.076,4370,Li-ion
4.005,-1920,49,39.8,2041.208,4370,Li-ion
4.005,-1927,49,39.8,2041.208,4370,Li-ion
4.006,-1670,49,39.7,2049.472,4370,Li-ion
4.006,-1954,49,39.7,2049.472,4370,Li-ion
4.006,-1983,49,39.7,2049.472,4370,Li-ion
4.007,-1929,49,39.6,2053.604,4370,Li-ion
4.007,-1929,49,39.6,2053.604,4370,Li-ion
4.006,-1878,50,39.6,2057.736,4370,Li-ion
4.006,-1894,50,39.6,2057.736,4370,Li-ion
4.008,-1849,50,39.5,2066,4370,Li-ion
4.008,-1934,50,39.5,2066,4370,Li-ion
4.008,-1712,50,39.5,2066,4370,Li-ion
4.05,-3887,50,39.4,2070.132,4370,Li-ion
4.05,-3956,50,39.4,2070.132,4370,Li-ion
4.105,-3919,50,39.5,2074.264,4370,Li-ion
4.105,-3776,50,39.5,2074.264,4370,Li-ion
4.105,-3893,50,39.5,2074.264,4370,Li-ion
4.111,-3948,50,39.7,2086.66,4370,Li-ion
4.111,-3911,50,39.7,2086.66,4370,Li-ion
4.115,-3953,51,39.8,2099.056,4370,Li-ion
4.115,-3987,51,39.8,2099.056,4370,Li-ion
4.115,-3959,51,39.8,2099.056,4370,Li-ion
4.12,-3892,51,39.9,2107.32,4370,Li-ion
4.12,-3944,51,39.9,2107.32,4370,Li-ion
4.12,-3920,51,40,2119.716,4370,Li-ion
4.12,-3935,51,40,2119.716,4370,Li-ion
4.114,-3870,51,40.1,2132.112,4370,Li-ion
4.114,-3951,51,40.1,2132.112,4370,Li-ion
4.114,-3986,51,40.1,2132.112,4370,Li-ion
4.127,-3821,52,40.2,2144.508,4370,Li-ion
4.127,-3954,52,40.2,2144.508,4370,Li-ion
4.129,-3838,52,40.3,2152.772,4370,Li-ion
4.129,-3927,52,40.3,2152.772,4370,Li-ion
4.129,-3949,52,40.3,2152.772,4370,Li-ion
4.13,-3977,52,40.4,2165.168,4370,Li-ion
4.13,-3975,52,40.4,2165.168,4370,Li-ion
4.134,-3938,53,40.5,2177.564,4370,Li-ion
4.134,-3922,53,40.5,2177.564,4370,Li-ion
4.131,-3902,53,40.6,2189.96,4370,Li-ion
4.131,-3870,53,40.6,2189.96,4370,Li-ion
4.131,-3940,53,40.6,2189.96,4370,Li-ion
4.137,-3925,53,40.6,2198.224,4370,Li-ion
4.137,-3925,53,40.6,2198.224,4370,Li-ion
4.137,-3933,53,40.7,2210.62,4370,Li-ion
4.137,-4001,53,40.7,2210.62,4370,Li-ion
4.137,-3873,53,40.7,2210.62,4370,Li-ion
4.141,-3969,54,40.7,2223.016,4370,Li-ion
4.141,-3905,54,40.7,2223.016,4370,Li-ion
4.141,-3874,54,40.8,2235.412,4370,Li-ion
4.141,-3910,54,40.8,2235.412,4370,Li-ion
4.144,-3919,54,40.9,2243.676,4370,Li-ion
4.144,-3928,54,40.9,2243.676,4370,Li-ion
4.144,-3938,54,40.9,2243.676,4370,Li-ion
4.146,-3930,54,40.9,2256.072,4370,Li-ion
4.146,-3921,54,40.9,2256.072,4370,Li-ion
4.147,-3894,55,41,2268.468,4370,Li-ion
4.147,-3903,55,41,2268.468,4370,Li-ion
4.147,-3953,55,41,2268.468,4370,Li-ion
4.15,-3918,55,41,2276.732,4370,Li-ion
4.15,-3985,55,41,2276.732,4370,Li-ion
4.15,-3886,55,41,2289.128,4370,Li-ion
4.15,-3898,55,41,2289.128,4370,Li-ion
4.15,-3912,55,41,2301.524,4370,Li-ion
4.152,-3925,56,41.1,2301.524,4370,Li-ion
4.152,-3991,56,41.1,2301.524,4370,Li-ion
4.153,-3982,56,41.1,2313.92,4370,Li-ion
4.153,-3995,56,41.1,2313.92,4370,Li-ion
4.156,-3936,56,41.1,2322.184,4370,Li-ion
4.156,-3980,56,41.1,2322.184,4370,Li-ion
4.156,-3930,56,41.1,2322.184,4370,Li-ion
4.159,-3947,56,41.2,2334.58,4370,Li-ion
4.159,-3741,56,41.2,2334.58,4370,Li-ion
4.16,-3966,57,41.2,2346.976,4370,Li-ion
4.16,-3902,57,41.2,2346.976,4370,Li-ion
4.16,-3327,57,41.2,2346.976,4370,Li-ion
4.132,-3801,57,41.3,2359.372,4370,Li-ion
4.132,-3693,57,41.3,2359.372,4370,Li-ion
4.161,-3888,57,41.3,2367.636,4370,Li-ion
4.161,-3849,57,41.3,2367.636,4370,Li-ion
4.159,-3309,57,41.5,2380.032,4370,Li-ion
4.159,-3860,57,41.5,2380.032,4370,Li-ion
4.159,-1876,57,41.5,2380.032,4370,Li-ion
4.077,-1985,58,41.6,2392.428,4370,Li-ion
4.077,-1761,58,41.6,2392.428,4370,Li-ion
4.069,-1823,58,41.4,2400.692,4370,Li-ion
4.069,-1953,58,41.4,2400.692,4370,Li-ion
4.069,-1905,58,41.4,2400.692,4370,Li-ion
4.069,-1891,58,41.2,2404.824,4370,Li-ion
4.069,-1895,58,41.2,2404.824,4370,Li-ion
4.058,-1916,58,41,2408.956,4370,Li-ion
4.058,-1903,58,41,2408.956,4370,Li-ion
4.058,-1907,58,41,2408.956,4370,Li-ion
4.067,-1944,58,40.8,2417.22,4370,Li-ion
4.067,-1950,58,40.8,2417.22,4370,Li-ion
4.068,-1908,58,40.6,2421.352,4370,Li-ion
4.068,-1923,58,40.6,2421.352,4370,Li-ion
4.07,-1699,58,40.5,2425.484,4370,Li-ion
4.07,-1827,58,40.5,2425.484,4370,Li-ion
4.07,-1926,58,40.5,2425.484,4370,Li-ion
4.067,-1813,59,40.3,2429.616,4370,Li-ion
4.067,-1925,59,40.3,2429.616,4370,Li-ion
4.067,-1926,59,40.2,2437.88,4370,Li-ion
4.067,-1946,59,40.2,2437.88,4370,Li-ion
4.067,-1910,59,40.2,2437.88,4370,Li-ion
4.07,-1944,59,40.1,2442.012,4370,Li-ion
4.07,-1920,59,40.1,2442.012,4370,Li-ion
4.059,-1520,59,40,2446.144,4370,Li-ion
4.059,-1521,59,40,2446.144,4370,Li-ion
4.063,-1621,59,39.9,2454.408,4370,Li-ion
4.063,-1936,59,39.9,2454.408,4370,Li-ion
4.063,-1839,59,39.9,2454.408,4370,Li-ion
4.072,-1985,59,39.9,2458.54,4370,Li-ion
4.072,-1931,59,39.9,2458.54,4370,Li-ion
4.071,-1859,59,39.5,2462.672,4370,Li-ion
4.071,-1670,59,39.5,2462.672,4370,Li-ion
4.071,-4037,59,39.5,2462.672,4370,Li-ion
4.164,-3958,59,38.5,2470.936,4370,Li-ion
4.164,-3929,59,38.5,2470.936,4370,Li-ion
4.176,-4007,60,38.6,2475.068,4370,Li-ion
4.176,-3998,60,38.6,2475.068,4370,Li-ion
4.176,-4045,60,38.6,2475.068,4370,Li-ion
4.183,-4080,60,38.8,2487.464,4370,Li-ion
4.183,-3930,60,38.8,2487.464,4370,Li-ion
4.19,-4128,60,39,2499.86,4370,Li-ion
4.19,-3987,60,39,2499.86,4370,Li-ion
4.184,-4062,61,39.2,2512.256,4370,Li-ion
4.184,-4029,61,39.2,2512.256,4370,Li-ion
4.184,-3987,61,39.2,2512.256,4370,Li-ion
4.198,-4017,61,39.4,2524.652,4370,Li-ion
4.198,-4061,61,39.4,2524.652,4370,Li-ion
4.198,-3989,61,39.5,2532.916,4370,Li-ion
4.198,-3489,61,39.5,2532.916,4370,Li-ion
4.198,-3960,61,39.5,2532.916,4370,Li-ion
4.193,-3846,61,39.6,2545.312,4370,Li-ion
4.193,-3729,61,39.6,2545.312,4370,Li-ion
4.194,-3815,62,39.8,2557.708,4370,Li-ion
4.194,-4014,62,39.8,2557.708,4370,Li-ion
4.205,-4015,62,40,2565.972,4370,Li-ion
4.205,-3803,62,40,2565.972,4370,Li-ion
4.205,-3740,62,40,2565.972,4370,Li-ion
4.205,-3111,62,40.1,2578.368,4370,Li-ion
4.205,-3308,62,40.1,2578.368,4370,Li-ion
4.201,-3689,62,40.3,2590.764,4370,Li-ion
4.201,-3662,62,40.3,2590.764,4370,Li-ion
4.201,-3755,62,40.3,2590.764,4370,Li-ion
4.203,-3700,63,40.6,2599.028,4370,Li-ion
4.203,-3750,63,40.6,2599.028,4370,Li-ion
4.214,-4094,63,40.7,2611.424,4370,Li-ion
4.214,-3109,63,40.7,2611.424,4370,Li-ion
4.214,-3439,63,40.7,2611.424,4370,Li-ion
4.195,-3462,63,40.9,2623.82,4370,Li-ion
4.195,-4006,63,40.9,2623.82,4370,Li-ion
4.217,-4046,64,41,2632.084,4370,Li-ion
4.217,-3537,64,41,2632.084,4370,Li-ion
4.217,-3772,64,41,2644.48,4370,Li-ion
4.209,-3850,64,41.1,2644.48,4370,Li-ion
4.209,-3830,64,41.1,2644.48,4370,Li-ion
4.221,-3825,64,41.2,2656.876,4370,Li-ion
4.221,-3180,64,41.2,2656.876,4370,Li-ion
4.214,-3842,64,41.3,2665.14,4370,Li-ion
4.214,-3890,64,41.3,2665.14,4370,Li-ion
4.214,-3728,64,41.3,2665.14,4370,Li-ion
4.217,-3600,65,41.5,2677.536,4370,Li-ion
4.217,-1599,65,41.5,2677.536,4370,Li-ion
4.13,-1652,65,41.6,2685.8,4370,Li-ion
4.13,-1877,65,41.6,2685.8,4370,Li-ion
4.13,-1535,65,41.6,2685.8,4370,Li-ion
4.098,-1842,65,41.4,2694.064,4370,Li-ion
4.098,-1549,65,41.4,2694.064,4370,Li-ion
4.084,-1762,65,41.3,2698.196,4370,Li-ion
4.084,-1867,65,41.3,2698.196,4370,Li-ion
4.084,-1930,65,41.3,2698.196,4370,Li-ion
4.122,-1048,65,41.2,2702.328,4370,Li-ion
4.122,-1528,65,41.2,2702.328,4370,Li-ion
4.1,-1504,65,41.1,2710.592,4370,Li-ion
4.1,-1622,65,41.1,2710.592,4370,Li-ion
4.1,-700,65,41.1,2710.592,4370,Li-ion
4.076,-1623,65,41.1,2714.724,4370,Li-ion
4.076,-1845,65,41.1,2714.724,4370,Li-ion
4.12,-1916,65,41.1,2718.856,4370,Li-ion
4.12,-1449,65,41.1,2718.856,4370,Li-ion
4.112,-1341,66,41.1,2722.988,4370,Li-ion
4.112,-1851,66,41.1,2722.988,4370,Li-ion
4.112,-1398,66,41.1,2722.988,4370,Li-ion
4.097,-1661,66,41,2727.12,4370,Li-ion
4.097,-1675,66,41,2727.12,4370,Li-ion
4.123,-1946,66,41,2731.252,4370,Li-ion
4.123,-1910,66,41,2731.252,4370,Li-ion
4.123,-1930,66,41,2731.252,4370,Li-ion
4.127,-1776,66,40.9,2735.384,4370,Li-ion
4.127,-1938,66,40.9,2735.384,4370,Li-ion
4.125,-1936,66,40.8,2739.516,4370,Li-ion
4.125,-1946,66,40.8,2739.516,4370,Li-ion
4.125,-1750,66,40.8,2739.516,4370,Li-ion
4.122,-1905,66,40.6,2747.78,4370,Li-ion
4.122,-1649,66,40.6,2747.78,4370,Li-ion
4.089,-1919,66,40.5,2751.912,4370,Li-ion
4.089,-1995,66,40.5,2751.912,4370,Li-ion
4.129,-1954,66,40.5,2756.044,4370,Li-ion
4.129,-1935,66,40.5,2756.044,4370,Li-ion
4.129,-1973,66,40.5,2756.044,4370,Li-ion
4.131,-1984,67,40.4,2760.176,4370,Li-ion
4.131,-1947,67,40.4,2760.176,4370,Li-ion
4.135,-1687,67,40.2,2768.44,4370,Li-ion
4.135,-1782,67,40.2,2768.44,4370,Li-ion
4.135,-1455,67,40.2,2768.44,4370,Li-ion
4.113,-1822,67,40.1,2772.572,4370,Li-ion
4.113,-1874,67,40.1,2772.572,4370,Li-ion
4.136,-1855,67,40.1,2776.704,4370,Li-ion
4.136,-1679,67,40.1,2776.704,4370,Li-ion
4.136,-1670,67,40.1,2776.704,4370,Li-ion
4.132,-1932,67,40,2780.836,4370,Li-ion
4.132,-1908,67,40,2780.836,4370,Li-ion
4.129,-1821,67,40,2789.1,4370,Li-ion
4.129,-1790,67,40,2789.1,4370,Li-ion
4.129,-1728,67,40,2789.1,4370,Li-ion
4.117,-987,67,39.9,2793.232,4370,Li-ion
4.117,-1954,67,39.9,2793.232,4370,Li-ion
4.14,-1918,67,39.9,2797.364,4370,Li-ion
4.14,-1980,67,39.9,2797.364,4370,Li-ion
4.14,-1932,67,39.9,2797.364,4370,Li-ion
4.142,-1986,68,39.9,2801.496,4370,Li-ion
4.142,-1941,68,39.9,2801.496,4370,Li-ion
4.144,-1372,68,39.8,2809.76,4370,Li-ion
4.144,-1880,68,39.8,2809.76,4370,Li-ion
4.144,-1559,68,39.8,2813.892,4370,Li-ion
4.135,-1939,68,39.7,2813.892,4370,Li-ion
4.135,-1891,68,39.7,2813.892,4370,Li-ion
4.141,-1945,68,39.6,2818.024,4370,Li-ion
4.141,-1925,68,39.6,2818.024,4370,Li-ion
4.148,-1958,68,39.5,2826.288,4370,Li-ion
4.148,-2346,68,39.5,2826.288,4370,Li-ion
4.148,-3971,68,39.5,2826.288,4370,Li-ion
4.227,-3907,68,39.5,2830.42,4370,Li-ion
4.227,-3920,68,39.5,2830.42,4370,Li-ion
4.25,-3945,69,39.6,2838.684,4370,Li-ion
4.25,-3950,69,39.6,2838.684,4370,Li-ion
4.25,-3960,69,39.6,2838.684,4370,Li-ion
4.257,-3830,69,39.7,2851.08,4370,Li-ion
4.257,-3915,69,39.7,2851.08,4370,Li-ion
4.254,-3738,69,39.9,2859.344,4370,Li-ion
4.254,-3979,69,39.9,2859.344,4370,Li-ion
4.254,-3953,69,39.9,2859.344,4370,Li-ion
4.268,-3929,69,39.9,2871.74,4370,Li-ion
4.268,-3887,69,39.9,2871.74,4370,Li-ion
4.271,-3861,70,40,2884.136,4370,Li-ion
4.271,-3790,70,40,2884.136,4370,Li-ion
4.271,-3788,70,40,2884.136,4370,Li-ion
4.269,-3781,70,40.1,2896.532,4370,Li-ion
4.269,-3776,70,40.1,2896.532,4370,Li-ion
4.27,-3762,70,40.1,2904.796,4370,Li-ion
4.27,-3696,70,40.1,2904.796,4370,Li-ion
4.271,-3659,70,40.1,2917.192,4370,Li-ion
4.271,-3616,70,40.1,2917.192,4370,Li-ion
4.271,-3661,70,40.1,2917.192,4370,Li-ion
4.269,-3651,71,40.2,2929.588,4370,Li-ion
4.269,-3623,71,40.2,2929.588,4370,Li-ion
4.27,-3534,71,40.2,2937.852,4370,Li-ion
4.27,-3575,71,40.2,2937.852,4370,Li-ion
4.27,-3462,71,40.2,2937.852,4370,Li-ion
4.266,-3479,71,40.2,2950.248,4370,Li-ion
4.266,-3417,71,40.2,2950.248,4370,Li-ion
4.268,-3403,71,40.2,2958.512,4370,Li-ion
4.268,-3451,71,40.2,2958.512,4370,Li-ion
4.268,-3468,71,40.2,2958.512,4370,Li-ion
4.27,-3364,72,40.2,2970.908,4370,Li-ion
4.27,-3335,72,40.2,2970.908,4370,Li-ion
4.267,-3353,72,40.1,2979.172,4370,Li-ion
4.267,-3325,72,40.1,2979.172,4370,Li-ion
4.267,-3341,72,40.1,2979.172,4370,Li-ion
4.267,-3258,72,40.1,2987.436,4370,Li-ion
4.267,-3301,72,40.1,2987.436,4370,Li-ion
4.268,-3275,72,40.1,2999.832,4370,Li-ion
4.268,-3266,72,40.1,2999.832,4370,Li-ion
4.268,-3238,73,40.1,3008.096,4370,Li-ion
4.269,-3202,73,40.1,3008.096,4370,Li-ion
4.269,-3070,73,40.1,3008.096,4370,Li-ion
4.269,-2826,73,40,3016.36,4370,Li-ion
4.269,-3138,73,40,3016.36,4370,Li-ion
4.269,-3051,73,40,3028.756,4370,Li-ion
4.269,-3165,73,40,3028.756,4370,Li-ion
4.269,-3095,73,40,3028.756,4370,Li-ion
4.265,-3061,73,40,3037.02,4370,Li-ion
4.265,-3090,73,40,3037.02,4370,Li-ion
4.269,-3118,73,40,3045.284,4370,Li-ion
4.269,-3049,73,40,3045.284,4370,Li-ion
4.269,-3016,73,40,3045.284,4370,Li-ion
4.268,-3083,74,40,3053.548,4370,Li-ion
4.268,-2949,74,40,3053.548,4370,Li-ion
4.269,-2905,74,40,3061.812,4370,Li-ion
4.269,-2956,74,40,3061.812,4370,Li-ion
4.269,-2904,74,40,3061.812,4370,Li-ion
4.268,-2592,74,40,3070.076,4370,Li-ion
4.268,-3132,74,40,3070.076,4370,Li-ion
4.278,-3143,74,39.9,3078.34,4370,Li-ion
4.278,-2743,74,39.9,3078.34,4370,Li-ion
4.278,-3059,74,39.9,3078.34,4370,Li-ion
4.281,-3009,75,39.9,3086.604,4370,Li-ion
4.281,-3169,75,39.9,3086.604,4370,Li-ion
4.282,-2991,75,39.9,3099,4370,Li-ion
4.282,-3115,75,39.9,3099,4370,Li-ion
4.286,-3127,75,39.9,3107.264,4370,Li-ion
4.286,-3140,75,39.9,3107.264,4370,Li-ion
4.286,-3071,75,39.9,3107.264,4370,Li-ion
4.29,-3122,75,39.9,3115.528,4370,Li-ion
4.29,-3018,75,39.9,3115.528,4370,Li-ion
4.291,-3074,75,39.9,3123.792,4370,Li-ion
4.291,-3130,75,39.9,3123.792,4370,Li-ion
4.291,-3152,75,39.9,3123.792,4370,Li-ion
4.291,-3129,76,39.9,3132.056,4370,Li-ion
4.291,-3160,76,39.9,3132.056,4370,Li-ion
4.292,-3090,76,39.8,3140.32,4370,Li-ion
4.292,-3108,76,39.8,3140.32,4370,Li-ion
4.292,-3101,76,39.8,3140.32,4370,Li-ion
4.297,-3114,76,39.8,3152.716,4370,Li-ion
4.297,-3084,76,39.8,3152.716,4370,Li-ion
4.3,-3166,76,39.8,3160.98,4370,Li-ion
4.3,-1882,76,39.8,3160.98,4370,Li-ion
4.3,-3148,76,39.8,3160.98,4370,Li-ion
4.301,-2987,76,39.8,3169.244,4370,Li-ion
4.301,-3023,76,39.8,3169.244,4370,Li-ion
4.306,-3004,77,39.8,3177.508,4370,Li-ion
4.306,-3140,77,39.8,3177.508,4370,Li-ion
4.307,-3012,77,39.8,3185.772,4370,Li-ion
4.307,-3075,77,39.8,3185.772,4370,Li-ion
4.307,-3120,77,39.8,3185.772,4370,Li-ion
4.31,-3096,77,39.8,3194.036,4370,Li-ion
4.31,-3082,77,39.8,3194.036,4370,Li-ion
4.313,-3116,77,39.8,3202.3,4370,Li-ion
4.313,-3155,77,39.8,3202.3,4370,Li-ion
4.313,-3164,77,39.8,3202.3,4370,Li-ion
4.31,-3174,78,39.8,3214.696,4370,Li-ion
4.31,-3177,78,39.8,3214.696,4370,Li-ion
4.319,-3042,78,39.8,3222.96,4370,Li-ion
4.319,-3123,78,39.8,3222.96,4370,Li-ion
4.319,-3129,78,39.8,3222.96,4370,Li-ion
4.32,-3118,78,39.8,3231.224,4370,Li-ion
4.32,-3087,78,39.8,3231.224,4370,Li-ion
4.322,-3053,78,39.7,3239.488,4370,Li-ion
4.322,-3060,78,39.7,3239.488,4370,Li-ion
4.322,-3113,78,39.7,3239.488,4370,Li-ion
4.326,-3102,78,39.7,3247.752,4370,Li-ion
4.326,-3160,78,39.7,3247.752,4370,Li-ion
4.329,-3130,79,39.7,3260.148,4370,Li-ion
4.329,-3110,79,39.7,3260.148,4370,Li-ion
4.333,-3081,79,39.7,3268.412,4370,Li-ion
4.333,-3141,79,39.7,3268.412,4370,Li-ion
4.333,-3205,79,39.7,3268.412,4370,Li-ion
4.332,-3186,79,39.7,3276.676,4370,Li-ion
4.332,-3046,79,39.7,3276.676,4370,Li-ion
4.337,-3209,79,39.7,3284.94,4370,Li-ion
4.337,-3189,79,39.7,3284.94,4370,Li-ion
4.337,-3094,79,39.7,3284.94,4370,Li-ion
4.339,-3137,80,39.7,3293.204,4370,Li-ion
4.339,-3119,80,39.7,3293.204,4370,Li-ion
4.341,-3131,80,39.7,3305.6,4370,Li-ion
4.341,-3022,80,39.7,3305.6,4370,Li-ion
4.341,-3167,80,39.7,3305.6,4370,Li-ion
4.345,-3170,80,39.6,3313.864,4370,Li-ion
4.345,-3188,80,39.6,3313.864,4370,Li-ion
4.347,-3127,80,39.6,3322.128,4370,Li-ion
4.347,-3092,80,39.6,3322.128,4370,Li-ion
4.347,-3081,80,39.6,3322.128,4370,Li-ion
4.349,-3130,80,39.6,3330.392,4370,Li-ion
4.349,-3140,80,39.6,3330.392,4370,Li-ion
4.35,-3095,81,39.6,3338.656,4370,Li-ion
4.35,-3183,81,39.6,3338.656,4370,Li-ion
4.35,-2978,81,39.6,3351.052,4370,Li-ion
4.355,-3159,81,39.6,3351.052,4370,Li-ion
4.355,-3139,81,39.6,3351.052,4370,Li-ion
4.357,-3111,81,39.6,3359.316,4370,Li-ion
4.357,-3114,81,39.6,3359.316,4370,Li-ion
4.359,-3050,81,39.6,3367.58,4370,Li-ion
4.359,-3094,81,39.6,3367.58,4370,Li-ion
4.359,-3176,81,39.6,3367.58,4370,Li-ion
4.36,-3094,81,39.6,3375.844,4370,Li-ion
4.36,-3174,81,39.6,3375.844,4370,Li-ion
4.364,-3174,82,39.6,3384.108,4370,Li-ion
4.364,-3108,82,39.6,3384.108,4370,Li-ion
4.364,-3175,82,39.6,3384.108,4370,Li-ion
4.367,-3169,82,39.6,3392.372,4370,Li-ion
4.367,-3106,82,39.6,3392.372,4370,Li-ion
4.37,-3067,82,39.6,3404.768,4370,Li-ion
4.37,-3152,82,39.6,3404.768,4370,Li-ion
4.37,-2601,82,39.6,3404.768,4370,Li-ion
4.349,-2955,82,39.6,3413.032,4370,Li-ion
4.349,-3172,82,39.6,3413.032,4370,Li-ion
4.373,-3183,83,39.6,3421.296,4370,Li-ion
4.373,-3163,83,39.6,3421.296,4370,Li-ion
4.373,-3054,83,39.6,3421.296,4370,Li-ion
4.369,-3188,83,39.6,3429.56,4370,Li-ion
4.369,-3078,83,39.6,3429.56,4370,Li-ion
4.38,-3160,83,39.6,3437.824,4370,Li-ion
4.38,-3159,83,39.6,3437.824,4370,Li-ion
4.384,-3174,83,39.6,3446.088,4370,Li-ion
4.384,-3127,83,39.6,3446.088,4370,Li-ion
4.384,-3134,83,39.6,3446.088,4370,Li-ion
4.385,-3118,83,39.6,3458.484,4370,Li-ion
4.385,-3184,83,39.6,3458.484,4370,Li-ion
4.386,-3083,84,39.6,3466.748,4370,Li-ion
4.386,-3131,84,39.6,3466.748,4370,Li-ion
4.386,-3169,84,39.6,3466.748,4370,Li-ion
4.391,-3117,84,39.6,3475.012,4370,Li-ion
4.391,-3137,84,39.6,3475.012,4370,Li-ion
4.392,-3104,84,39.6,3483.276,4370,Li-ion
4.392,-3137,84,39.6,3483.276,4370,Li-ion
4.392,-3080,84,39.6,3483.276,4370,Li-ion
4.395,-3154,84,39.6,3491.54,4370,Li-ion
4.395,-3124,84,39.6,3491.54,4370,Li-ion
4.365,-3121,85,39.6,3503.936,4370,Li-ion
4.365,-2739,85,39.6,3503.936,4370,Li-ion
4.365,-3119,85,39.6,3503.936,4370,Li-ion
4.399,-3119,85,39.6,3512.2,4370,Li-ion
4.399,-3126,85,39.6,3512.2,4370,Li-ion
4.403,-3159,85,39.6,3520.464,4370,Li-ion
4.403,-3187,85,39.6,3520.464,4370,Li-ion
4.403,-3131,85,39.6,3520.464,4370,Li-ion
4.406,-3143,85,39.6,3528.728,4370,Li-ion
4.406,-3128,85,39.6,3528.728,4370,Li-ion
4.408,-3143,85,39.6,3536.992,4370,Li-ion
4.408,-3155,85,39.6,3536.992,4370,Li-ion
4.411,-2986,86,39.6,3545.256,4370,Li-ion
4.411,-3235,86,39.6,3545.256,4370,Li-ion
4.411,-3258,86,39.6,3545.256,4370,Li-ion
4.415,-3085,86,39.6,3557.652,4370,Li-ion
4.415,-3137,86,39.6,3557.652,4370,Li-ion
4.416,-3094,86,39.6,3565.916,4370,Li-ion
4.416,-3154,86,39.6,3565.916,4370,Li-ion
4.416,-3150,86,39.6,3565.916,4370,Li-ion
4.417,-3071,86,39.6,3574.18,4370,Li-ion
4.417,-3087,86,39.6,3574.18,4370,Li-ion
4.418,-2965,86,39.6,3582.444,4370,Li-ion
4.418,-3010,86,39.6,3582.444,4370,Li-ion
4.418,-2990,86,39.6,3582.444,4370,Li-ion
4.417,-2930,87,39.5,3590.708,4370,Li-ion
4.417,-2932,87,39.5,3590.708,4370,Li-ion
4.418,-2870,87,39.5,3598.972,4370,Li-ion
4.418,-2824,87,39.5,3598.972,4370,Li-ion
4.418,-2862,87,39.5,3598.972,4370,Li-ion
4.414,-2841,87,39.5,3611.368,4370,Li-ion
4.414,-2794,87,39.5,3611.368,4370,Li-ion
4.414,-2848,87,39.5,3615.5,4370,Li-ion
4.414,-2793,87,39.5,3615.5,4370,Li-ion
4.416,-2824,87,39.4,3623.764,4370,Li-ion
4.416,-2740,87,39.4,3623.764,4370,Li-ion
4.416,-2779,87,39.4,3623.764,4370,Li-ion
4.417,-2842,88,39.4,3632.028,4370,Li-ion
4.417,-2837,88,39.4,3632.028,4370,Li-ion
4.415,-2683,88,39.4,3640.292,4370,Li-ion
4.415,-2715,88,39.4,3640.292,4370,Li-ion
4.415,-2664,88,39.4,3640.292,4370,Li-ion
4.414,-2641,88,39.4,3648.556,4370,Li-ion
4.414,-2637,88,39.4,3648.556,4370,Li-ion
4.415,-2604,88,39.3,3656.82,4370,Li-ion
4.415,-2682,88,39.3,3656.82,4370,Li-ion
4.415,-2576,88,39.3,3656.82,4370,Li-ion
4.417,-2572,88,39.3,3665.084,4370,Li-ion
4.417,-2563,88,39.3,3665.084,4370,Li-ion
4.417,-2510,89,39.2,3673.348,4370,Li-ion
4.417,-2560,89,39.2,3673.348,4370,Li-ion
4.417,-2570,89,39.2,3673.348,4370,Li-ion
4.417,-2449,89,39.2,3681.612,4370,Li-ion
4.417,-2389,89,39.2,3681.612,4370,Li-ion
4.411,-2431,89,39.2,3685.744,4370,Li-ion
4.411,-2439,89,39.2,3685.744,4370,Li-ion
4.411,-2437,89,39.2,3685.744,4370,Li-ion
4.413,-2378,89,39.1,3694.008,4370,Li-ion
4.413,-2408,89,39.1,3694.008,4370,Li-ion
4.415,-2448,89,39.1,3702.272,4370,Li-ion
4.415,-2374,89,39.1,3702.272,4370,Li-ion
4.417,-2379,89,39,3710.536,4370,Li-ion
4.417,-2423,89,39,3710.536,4370,Li-ion
4.417,-2349,89,39,3710.536,4370,Li-ion
4.415,-2357,90,39,3714.668,4370,Li-ion
4.415,-2344,90,39,3714.668,4370,Li-ion
4.417,-2415,90,38.9,3722.932,4370,Li-ion
4.417,-2370,90,38.9,3722.932,4370,Li-ion
4.417,-2370,90,38.9,3722.932,4370,Li-ion
4.415,-2303,90,38.9,3731.196,4370,Li-ion
4.415,-2296,90,38.9,3731.196,4370,Li-ion
4.417,-2324,90,38.9,3735.328,4370,Li-ion
4.417,-2240,90,38.9,3735.328,4370,Li-ion
4.417,-2377,90,38.9,3735.328,4370,Li-ion
4.417,-2192,90,38.8,3743.592,4370,Li-ion
4.417,-2243,90,38.8,3743.592,4370,Li-ion
4.417,-2186,90,38.8,3747.724,4370,Li-ion
4.417,-2188,90,38.8,3747.724,4370,Li-ion
4.417,-2184,90,38.8,3747.724,4370,Li-ion
4.417,-2273,91,38.7,3755.988,4370,Li-ion
4.417,-2016,91,38.7,3755.988,4370,Li-ion
4.412,-2109,91,38.7,3760.12,4370,Li-ion
4.412,-2114,91,38.7,3760.12,4370,Li-ion
4.413,-2049,91,38.7,3768.384,4370,Li-ion
4.413,-2087,91,38.7,3768.384,4370,Li-ion
4.413,-2119,91,38.7,3768.384,4370,Li-ion
4.416,-2007,91,38.6,3772.516,4370,Li-ion
4.416,-2067,91,38.6,3772.516,4370,Li-ion
4.416,-2011,91,38.6,3780.78,4370,Li-ion
4.416,-2054,91,38.6,3780.78,4370,Li-ion
4.416,-2112,91,38.6,3780.78,4370,Li-ion
4.417,-2053,91,38.5,3784.912,4370,Li-ion
4.417,-1961,91,38.5,3784.912,4370,Li-ion
4.416,-2040,91,38.5,3793.176,4370,Li-ion
4.416,-1674,91,38.5,3793.176,4370,Li-ion
4.416,-1558,91,38.5,3793.176,4370,Li-ion
4.4,-1574,92,38.5,3797.308,4370,Li-ion
4.4,-1570,92,38.5,3797.308,4370,Li-ion
4.397,-1526,92,38.6,3801.44,4370,Li-ion
4.397,-1481,92,38.6,3801.44,4370,Li-ion
4.387,-1523,92,38.9,3805.572,4370,Li-ion
4.387,-1508,92,38.9,3805.572,4370,Li-ion
4.395,-1627,92,39.3,3813.836,4370,Li-ion
4.395,-1624,92,39.3,3813.836,4370,Li-ion
4.395,-1671,92,39.3,3813.836,4370,Li-ion
4.393,-1665,92,39.5,3817.968,4370,Li-ion
4.393,-1762,92,39.5,3817.968,4370,Li-ion
4.415,-1810,92,39.7,3822.1,4370,Li-ion
4.415,-1723,92,39.7,3822.1,4370,Li-ion
4.415,-1633,92,39.7,3822.1,4370,Li-ion
4.397,-1728,92,39.9,3826.232,4370,Li-ion
4.397,-1968,92,39.9,3826.232,4370,Li-ion
4.415,-1978,92,39.9,3830.364,4370,Li-ion
4.415,-1681,92,39.9,3830.364,4370,Li-ion
4.416,-1715,93,39.9,3834.496,4370,Li-ion
4.416,-1860,93,39.9,3834.496,4370,Li-ion
4.416,-1906,93,39.9,3834.496,4370,Li-ion
4.417,-1834,93,39.8,3842.76,4370,Li-ion
4.417,-1907,93,39.8,3842.76,4370,Li-ion
4.418,-1802,93,39.7,3846.892,4370,Li-ion
4.418,-1875,93,39.7,3846.892,4370,Li-ion
4.401,-1400,93,39.6,3851.024,4370,Li-ion
4.401,-1404,93,38.8,3867.552,4370,Li-ion
4.399,-1330,94,38.6,3879.948,4370,Li-ion
4.4,-1309,94,38.2,3904.74,4370,Li-ion
4.401,-1268,94,38.1,3908.872,4370,Li-ion
4.4,-1270,94,38.1,3913.004,4370,Li-ion
4.4,-1213,95,37.9,3917.136,4370,Li-ion
4.4,-1211,95,37.9,3917.136,4370,Li-ion
4.4,-1161,95,37.9,3925.4,4370,Li-ion
4.4,-1224,95,37.9,3925.4,4370,Li-ion
4.402,-1221,95,38.2,3929.532,4370,Li-ion
4.402,-1235,95,38.2,3929.532,4370,Li-ion
4.402,-1191,95,38.2,3929.532,4370,Li-ion
4.4,-1202,95,38.4,3929.532,4370,Li-ion
4.402,-1157,95,38.5,3937.796,4370,Li-ion
4.401,-1145,95,38.3,3946.06,4370,Li-ion
4.399,-1090,95,38.1,3950.192,4370,Li-ion
4.4,-1070,96,37.6,3962.588,4370,Li-ion
4.401,-994,96,37.1,3983.248,4370,Li-ion
4.401,-980,96,37.1,3983.248,4370,Li-ion
4.401,-987,96,37.1,3983.248,4370,Li-ion
4.401,-967,96,37.1,3991.512,4370,Li-ion
4.401,-977,96,37.1,3991.512,4370,Li-ion
4.403,-965,96,37.2,3995.644,4370,Li-ion
4.403,-970,96,37.2,3995.644,4370,Li-ion
4.403,-959,96,37.2,3995.644,4370,Li-ion
4.401,-959,96,37.4,3995.644,4370,Li-ion
4.401,-962,96,37.4,3995.644,4370,Li-ion
4.398,-970,96,37.6,3999.776,4370,Li-ion
4.398,-961,96,37.6,3999.776,4370,Li-ion
4.398,-965,96,37.6,3999.776,4370,Li-ion
4.401,-895,96,37.7,3999.776,4370,Li-ion
4.401,-946,96,37.7,3999.776,4370,Li-ion
4.402,-892,97,37.8,4003.908,4370,Li-ion
4.402,-932,97,37.8,4003.908,4370,Li-ion
4.402,-925,97,37.8,4003.908,4370,Li-ion
4.4,-910,97,37.9,4008.04,4370,Li-ion
4.4,-921,97,37.9,4008.04,4370,Li-ion
4.4,-890,97,38,4008.04,4370,Li-ion
4.4,-896,97,38,4008.04,4370,Li-ion
4.4,-907,97,38,4012.172,4370,Li-ion
4.4,-922,97,38,4012.172,4370,Li-ion
4.4,-917,97,38,4012.172,4370,Li-ion
4.401,-907,97,38,4016.304,4370,Li-ion
4.401,-48,97,38,4016.304,4370,Li-ion
4.332,-241,97,37.8,4016.304,4370,Li-ion
4.332,814,97,37.8,4016.304,4370,Li-ion
4.332,421,97,37.8,4016.304,4370,Li-ion
4.337,-850,97,37.9,4020.436,4370,Li-ion
4.337,-905,97,37.9,4020.436,4370,Li-ion
4.392,-938,97,38.3,4020.436,4370,Li-ion
4.392,-1030,97,38.3,4020.436,4370,Li-ion
4.392,-798,97,38.3,4020.436,4370,Li-ion
4.391,-990,97,38.3,4020.436,4370,Li-ion
4.391,-983,97,38.3,4020.436,4370,Li-ion
4.399,-978,97,38,4020.436,4370,Li-ion
4.399,-928,97,38,4020.436,4370,Li-ion
4.399,-950,97,37.9,4024.568,4370,Li-ion
4.399,-950,97,37.9,4024.568,4370,Li-ion
4.399,-697,97,37.9,4024.568,4370,Li-ion
4.389,-307,97,37.7,4028.7,4370,Li-ion
4.389,-406,97,37.7,4028.7,4370,Li-ion
4.401,-952,98,37.4,4045.228,4370,Li-ion
4.401,-837,98,37.2,4074.152,4370,Li-ion
4.401,-799,98,37.2,4074.152,4370,Li-ion
4.401,-841,98,37.2,4074.152,4370,Li-ion
4.401,-826,98,37.2,4078.284,4370,Li-ion
4.401,-827,98,37.2,4078.284,4370,Li-ion
4.402,-807,99,37.3,4082.416,4370,Li-ion
4.402,-815,99,37.3,4082.416,4370,Li-ion
4.402,-777,99,37.3,4082.416,4370,Li-ion
4.4,-781,99,37.4,4103.076,4370,Li-ion
4.4,-801,99,37.4,4103.076,4370,Li-ion
4.4,-791,99,37.4,4103.076,4370,Li-ion
4.4,-795,99,37.4,4103.076,4370,Li-ion
4.4,-779,99,37.4,4103.076,4370,Li-ion
4.402,-786,99,37.5,4107.208,4370,Li-ion
4.402,-775,99,37.5,4107.208,4370,Li-ion
4.401,-770,99,37.6,4107.208,4370,Li-ion
4.401,-770,99,37.6,4107.208,4370,Li-ion
4.401,-767,99,37.6,4127.868,4370,Li-ion
4.4,-750,100,37.7,4127.868,4370,Li-ion
4.4,-780,100,37.7,4127.868,4370,Li-ion
4.401,-763,100,37.7,4132,4370,Li-ion
4.401,-760,100,37.7,4132,4370,Li-ion
4.4,-756,100,37.7,4132,4370,Li-ion
4.4,-755,100,37.7,4132,4370,Li-ion
4.4,-770,100,37.7,4132,4370,Li-ion
4.4,-736,100,37.7,4132,4370,Li-ion
4.4,-740,100,37.7,4132,4370,Li-ion
4.4,-737,100,37.7,4132,4370,Li-ion
4.4,-739,100,37.7,4132,4370,Li-ion
4.4,-736,100,37.7,4132,4370,Li-ion
4.4,-735,100,37.7,4132,4370,Li-ion
4.4,-722,100,37.7,4132,4370,Li-ion
4.4,-719,100,37.7,4132,4370,Li-ion
4.4,-719,100,37.7,4132,4370,Li-ion
4.4,-734,100,37.7,4132,4370,Li-ion
4.4,-724,100,37.7,4132,4370,Li-ion
4.4,-716,100,37.7,4132,4370,Li-ion
4.4,-711,100,37.7,4132,4370,Li-ion
4.4,-712,100,37.7,4132,4370,Li-ion
4.4,-715,100,37.7,4132,4370,Li-ion
4.4,-711,100,37.7,4132,4370,Li-ion
4.4,-704,100,37.7,4132,4370,Li-ion
4.4,-696,100,37.7,4132,4370,Li-ion
4.4,-735,100,37.7,4132,4370,Li-ion
4.4,-701,100,37.7,4132,4370,Li-ion
4.4,-677,100,37.7,4132,4370,Li-ion
4.4,-679,100,37.7,4132,4370,Li-ion
4.4,-699,100,37.7,4132,4370,Li-ion
4.4,-669,100,37.7,4132,4370,Li-ion
4.4,-660,100,37.7,4132,4370,Li-ion
4.4,-679,100,37.7,4132,4370,Li-ion
4.4,-677,100,37.7,4132,4370,Li-ion
4.4,-659,100,37.7,4132,4370,Li-ion
4.4,-661,100,37.7,4132,4370,Li-ion