File: dataset/samsung_A70.txt
voltage(V),current(mA),battery_percent,battery_temperature(Celsius),remaining_battery_charge(mAh),battery_capacity(mAh),battery_technology
3.733,-2314454,1,36.9,0,4400,Li-ion
3.492,-382385,1,36.6,0,4400,Li-ion
3.618,-647278,1,36.6,0,4400,Li-ion
3.611,-362549,1,36.8,0,4400,Li-ion
4.013,-4004519,1,38.2,0,4400,Li-ion
4.046,-1766053,1,37.5,0,4400,Li-ion
3.813,-1848451,1,36.9,0,4400,Li-ion
3.823,-1933900,1,36.8,0,4400,Li-ion
3.844,-1778565,2,36.7,0,4400,Li-ion
3.842,-1864930,2,36.7,0,4400,Li-ion
3.845,-1970826,2,36.6,0,4400,Li-ion
3.856,-1875916,2,36.6,0,4400,Li-ion
3.841,-1896974,2,36.6,0,4400,Li-ion
3.848,-1806947,2,36.5,0,4400,Li-ion
3.86,-1632081,2,36.5,0,4400,Li-ion
4.086,-4002688,2,37.7,0,4400,Li-ion
4.11,-4038088,2,37.7,0,4400,Li-ion
4.11,-4035952,2,37.7,0,4400,Li-ion
4.128,-4029849,2,37.8,0,4400,Li-ion
4.137,-4037173,2,37.8,0,4400,Li-ion
4.148,-4041750,2,37.8,0,4400,Li-ion
3.946,-1969300,3,37,0,4400,Li-ion
3.944,-2019654,3,36.7,0,4400,Li-ion
3.933,-1910096,3,36.6,0,4400,Li-ion
3.92,-2017823,3,36.6,0,4400,Li-ion
3.919,-1838380,3,36.5,0,4400,Li-ion
3.927,-1930238,3,36.5,0,4400,Li-ion
3.925,-1918336,3,36.4,0,4400,Li-ion
3.874,-1508484,3,36.4,0,4400,Li-ion
3.922,-1487733,3,36.4,0,4400,Li-ion
3.918,-1894227,3,36.4,0,4400,Li-ion
4.137,-4015505,3,37.5,0,4400,Li-ion
4.152,-4045107,3,37.6,0,4400,Li-ion
4.152,-4033206,3,37.6,0,4400,Li-ion
3.954,-2034303,4,37.1,0,4400,Li-ion
3.959,-2015382,4,36.7,0,4400,Li-ion
3.949,-1983338,4,36.6,0,4400,Li-ion
3.948,-1879273,4,36.5,0,4400,Li-ion
3.924,-2004090,4,36.5,0,4400,Li-ion
3.943,-1990052,4,36.4,0,4400,Li-ion
3.942,-1914369,4,36.4,0,4400,Li-ion
3.939,-1971742,4,36.4,0,4400,Li-ion
3.932,-1957093,4,36.4,0,4400,Li-ion
3.935,-1934205,4,36.4,0,4400,Li-ion
4.139,-4002993,4,37.5,0,4400,Li-ion
4.148,-4037783,4,37.5,0,4400,Li-ion
4.166,-4029849,4,37.8,0,4400,Li-ion
4.168,-4036868,5,37.8,34.68,4400,Li-ion
4.175,-4033511,5,37.9,34.68,4400,Li-ion
4.175,-4031680,5,37.9,34.68,4400,Li-ion
4.178,-4038394,5,37.9,34.68,4400,Li-ion
3.96,-1757813,5,37.3,34.68,4400,Li-ion
3.974,-1806031,5,36.9,34.68,4400,Li-ion
3.969,-1995851,5,36.8,34.68,4400,Li-ion
3.964,-1968385,5,36.7,34.68,4400,Li-ion
3.957,-1948853,5,36.7,34.68,4400,Li-ion
3.944,-1854554,5,36.7,34.68,4400,Li-ion
3.945,-1901551,5,36.6,34.68,4400,Li-ion
3.953,-1662293,5,36.6,34.68,4400,Li-ion
3.95,-1951905,5,36.6,34.68,4400,Li-ion
3.948,-1894227,6,36.6,69.36,4400,Li-ion
4.144,-3989871,6,37.8,69.36,4400,Li-ion
4.166,-4031374,6,37.9,69.36,4400,Li-ion
4.166,-4040530,6,37.9,69.36,4400,Li-ion
4.177,-4041445,6,38,69.36,4400,Li-ion
3.957,-2071534,6,37.1,69.36,4400,Li-ion
3.968,-1980897,6,36.9,69.36,4400,Li-ion
3.973,-2094117,6,36.9,69.36,4400,Li-ion
3.968,-1978761,6,36.8,69.36,4400,Li-ion
3.956,-1897889,6,36.8,69.36,4400,Li-ion
3.958,-2030641,6,36.8,69.36,4400,Li-ion
3.957,-1937562,6,36.7,69.36,4400,Li-ion
3.941,-1796876,7,36.7,104.04,4400,Li-ion
3.955,-1925050,7,36.7,104.04,4400,Li-ion
4.034,-4031374,7,37.5,104.04,4400,Li-ion
4.167,-4028628,7,37.9,104.04,4400,Li-ion
3.976,-2060243,7,37.1,104.04,4400,Li-ion
3.935,-2042542,8,36.9,104.04,4400,Li-ion
3.934,-1336365,8,36.8,104.04,4400,Li-ion
3.929,-1649171,8,36.8,104.04,4400,Li-ion
3.952,-1593629,8,36.8,104.04,4400,Li-ion
3.934,-1878358,8,36.8,104.04,4400,Li-ion
3.965,-1991883,8,36.8,104.04,4400,Li-ion
3.963,-1936952,8,36.8,104.04,4400,Li-ion
3.955,-1663514,8,36.8,104.04,4400,Li-ion
3.956,-1864625,8,36.7,104.04,4400,Li-ion
3.95,-1741944,8,36.8,104.04,4400,Li-ion
3.927,-1759339,9,36.7,138.72,4400,Li-ion
3.951,-1729127,9,36.7,138.72,4400,Li-ion
3.949,-1703797,9,36.7,138.72,4400,Li-ion
4.168,-4029543,9,37.9,138.72,4400,Li-ion
3.981,-2033387,9,37,138.72,4400,Li-ion
3.979,-2037965,9,36.9,138.72,4400,Li-ion
3.961,-1980592,9,36.8,138.72,4400,Li-ion
3.956,-2024232,9,36.8,138.72,4400,Li-ion
3.974,-2037660,9,36.8,138.72,4400,Li-ion
3.971,-2024232,9,36.8,138.72,4400,Li-ion
3.953,-1801148,9,36.8,138.72,4400,Li-ion
3.96,-1898194,9,36.8,138.72,4400,Li-ion
3.961,-1895142,9,36.8,138.72,4400,Li-ion
3.949,-1842042,9,36.8,138.72,4400,Li-ion
3.96,-1813660,10,36.8,208.08,4400,Li-ion
3.943,-1482850,10,36.7,208.08,4400,Li-ion
4.174,-4021914,10,38,208.08,4400,Li-ion
4.183,-4034731,10,38,208.08,4400,Li-ion
4.193,-4034121,11,38.1,208.08,4400,Li-ion
4,-1721802,11,37.2,208.08,4400,Li-ion
3.94,-2015382,11,37.1,208.08,4400,Li-ion
3.964,-1776124,11,37,208.08,4400,Li-ion
3.986,-1979981,11,37,208.08,4400,Li-ion
3.973,-1879273,11,36.9,208.08,4400,Li-ion
3.97,-1835328,11,36.9,208.08,4400,Li-ion
3.974,-1764832,11,36.9,208.08,4400,Li-ion
3.963,-1838075,12,36.9,242.76,4400,Li-ion
3.973,-1694031,12,36.9,242.76,4400,Li-ion
3.975,-1951600,12,36.9,242.76,4400,Li-ion
4.183,-4021609,12,38,242.76,4400,Li-ion
4.193,-4034426,12,38.1,242.76,4400,Li-ion
4.193,-4040225,12,38.1,242.76,4400,Li-ion
4.008,-2059022,12,37.3,242.76,4400,Li-ion
3.996,-2030641,12,37.1,242.76,4400,Li-ion
3.988,-1926576,12,37,242.76,4400,Li-ion
3.957,-1969300,12,37,242.76,4400,Li-ion
3.985,-1985780,12,37,242.76,4400,Li-ion
3.987,-1958314,12,37,242.76,4400,Li-ion
3.985,-1920777,12,36.9,242.76,4400,Li-ion
3.968,-1755067,12,36.9,242.76,4400,Li-ion
3.974,-1888429,13,36.9,277.44,4400,Li-ion
3.968,-1854249,13,36.9,277.44,4400,Li-ion
3.977,-1620484,13,36.9,277.44,4400,Li-ion
4.175,-3960879,13,37.8,277.44,4400,Li-ion
4.193,-4032290,13,38,277.44,4400,Li-ion
3.999,-2025453,13,37.4,277.44,4400,Li-ion
4.002,-2055970,14,37.1,277.44,4400,Li-ion
3.983,-1855775,14,37,277.44,4400,Li-ion
3.988,-1882325,14,37,277.44,4400,Li-ion
3.995,-2015077,14,37,277.44,4400,Li-ion
3.995,-2041932,14,37,277.44,4400,Li-ion
3.99,-1964723,14,37,277.44,4400,Li-ion
3.978,-1868287,14,36.9,277.44,4400,Li-ion
3.985,-1939088,14,36.9,277.44,4400,Li-ion
3.986,-1965028,14,36.9,277.44,4400,Li-ion
4.192,-4019778,15,38.1,312.12,4400,Li-ion
4.196,-4035952,15,38.1,312.12,4400,Li-ion
4.004,-1845704,15,37.2,312.12,4400,Li-ion
4,-2076417,15,37.1,312.12,4400,Li-ion
3.991,-1798707,15,37,312.12,4400,Li-ion
3.999,-1970216,15,37,312.12,4400,Li-ion
3.997,-1921082,15,37,312.12,4400,Li-ion
3.974,-1774293,15,37,312.12,4400,Li-ion
3.998,-1922608,15,36.9,312.12,4400,Li-ion
3.991,-1667786,15,36.9,312.12,4400,Li-ion
3.99,-1635133,15,36.9,312.12,4400,Li-ion
3.987,-1680909,15,36.9,312.12,4400,Li-ion
3.989,-1919862,15,36.9,312.12,4400,Li-ion
4.132,-4012454,15,37.7,312.12,4400,Li-ion
4.202,-4035037,15,38.1,312.12,4400,Li-ion
4.21,-4031069,16,38.2,346.8,4400,Li-ion
4.221,-4040530,16,38.3,346.8,4400,Li-ion
4.036,-2128297,16,37.3,346.8,4400,Li-ion
4.022,-2040711,17,37.2,346.8,4400,Li-ion
3.984,-1858827,17,37.1,346.8,4400,Li-ion
4.006,-1919557,17,37.1,346.8,4400,Li-ion
4.008,-1970216,17,37.1,346.8,4400,Li-ion
3.997,-1875306,17,37.1,346.8,4400,Li-ion
3.984,-1723939,17,37.1,346.8,4400,Li-ion
3.996,-1846619,17,37.1,346.8,4400,Li-ion
4.004,-1641541,17,37,346.8,4400,Li-ion
3.999,-1669617,17,37,346.8,4400,Li-ion
3.998,-1900025,18,37,416.16,4400,Li-ion
3.997,-1842042,18,37,416.16,4400,Li-ion
3.992,-1847535,18,37,416.16,4400,Li-ion
3.968,-1688538,18,37,416.16,4400,Li-ion
3.979,-1701966,18,37,416.16,4400,Li-ion
3.985,-1584168,18,37,416.16,4400,Li-ion
3.989,-1601258,18,37,416.16,4400,Li-ion
4.2,-4012454,18,38.2,416.16,4400,Li-ion
4.214,-4037173,18,38.2,416.16,4400,Li-ion
4.232,-4037173,18,38.3,416.16,4400,Li-ion
4.046,-2074281,18,37.5,416.16,4400,Li-ion
4.042,-2084352,18,37.3,416.16,4400,Li-ion
4.024,-1955262,19,37.2,450.84,4400,Li-ion
4.009,-1855470,19,37.2,450.84,4400,Li-ion
4.017,-1957704,19,37.2,450.84,4400,Li-ion
4.027,-2036744,19,37.2,450.84,4400,Li-ion
4.007,-1690064,19,37.1,450.84,4400,Li-ion
4.008,-1839906,19,37.1,450.84,4400,Li-ion
4.008,-1845094,20,37.1,450.84,4400,Li-ion
4,-1922913,20,37.1,450.84,4400,Li-ion
3.995,-1893617,20,37.1,450.84,4400,Li-ion
4.008,-1879578,20,37.1,450.84,4400,Li-ion
4.004,-1871644,20,37.1,450.84,4400,Li-ion
4.007,-1766358,20,37.1,450.84,4400,Li-ion
4.217,-3977969,20,38.2,450.84,4400,Li-ion
4.234,-3940737,21,38.4,485.52,4400,Li-ion
4.229,-3935854,21,38.3,485.52,4400,Li-ion
4.237,-3880618,21,38.4,485.52,4400,Li-ion
4.238,-3883669,21,38.5,485.52,4400,Li-ion
4.236,-3827212,21,38.5,485.52,4400,Li-ion
4.236,-3784182,22,38.6,554.88,4400,Li-ion
4.233,-3784792,22,38.6,554.88,4400,Li-ion
4.235,-3734133,22,38.6,554.88,4400,Li-ion
4.23,-3742068,23,38.6,554.88,4400,Li-ion
4.23,-3680117,23,38.7,554.88,4400,Li-ion
4.23,-3676760,23,38.7,554.88,4400,Li-ion
4.048,-1672059,23,37.9,554.88,4400,Li-ion
4.054,-1987916,23,37.8,554.88,4400,Li-ion
4.05,-1914674,23,37.7,554.88,4400,Li-ion
4.053,-1923524,23,37.6,554.88,4400,Li-ion
4.039,-1611024,24,37.6,624.24,4400,Li-ion
4.042,-1935731,24,37.6,624.24,4400,Li-ion
4.034,-1964112,24,37.6,624.24,4400,Li-ion
4.031,-1814881,24,37.5,624.24,4400,Li-ion
4.021,-1921693,24,37.5,624.24,4400,Li-ion
4.028,-1881104,24,37.5,624.24,4400,Li-ion
4.026,-1913148,25,37.6,624.24,4400,Li-ion
4.02,-1612855,25,37.5,624.24,4400,Li-ion
4.018,-1765748,25,37.5,624.24,4400,Li-ion
3.949,-1033631,25,37.5,624.24,4400,Li-ion
3.934,-966797,25,37.5,624.24,4400,Li-ion
3.934,-982361,25,37.5,624.24,4400,Li-ion
3.942,-1021118,25,37.5,624.24,4400,Li-ion
3.942,-1274414,25,37.5,624.24,4400,Li-ion
3.946,-1004639,25,37.5,624.24,4400,Li-ion
3.921,-990601,26,37.5,624.24,4400,Li-ion
3.929,-731201,26,37.5,624.24,4400,Li-ion
3.917,-796814,26,37.5,624.24,4400,Li-ion
3.903,-880127,26,37.5,624.24,4400,Li-ion
3.92,-951233,26,37.5,624.24,4400,Li-ion
3.921,-934448,26,37.5,624.24,4400,Li-ion
3.927,-1113892,26,37.5,624.24,4400,Li-ion
3.934,-1123658,26,37.5,624.24,4400,Li-ion
3.958,-1124573,26,37.5,624.24,4400,Li-ion
3.922,-936890,26,37.5,624.24,4400,Li-ion
3.907,-887146,26,37.4,624.24,4400,Li-ion
3.907,-1022034,26,37.4,624.24,4400,Li-ion
3.96,-1210328,26,37.5,624.24,4400,Li-ion
3.96,-1352845,26,37.5,624.24,4400,Li-ion
3.979,-986023,26,37.4,624.24,4400,Li-ion
3.979,-1593934,26,37.4,658.92,4400,Li-ion
3.979,-1523743,26,37.4,658.92,4400,Li-ion
3.968,-1396180,26,37.4,658.92,4400,Li-ion
4.181,-3586428,26,38.8,658.92,4400,Li-ion
4.199,-3621828,26,38.6,658.92,4400,Li-ion
4.033,-1936036,26,37.7,658.92,4400,Li-ion
4.017,-1941224,26,37.6,658.92,4400,Li-ion
4.042,-1958619,26,37.6,658.92,4400,Li-ion
4.025,-1875001,26,37.6,658.92,4400,Li-ion
4.042,-2002870,26,37.5,658.92,4400,Li-ion
4.032,-1913758,26,37.5,658.92,4400,Li-ion
4.008,-1596070,27,37.5,693.6,4400,Li-ion
4.033,-1663819,27,37.5,693.6,4400,Li-ion
4.034,-1574402,27,37.5,693.6,4400,Li-ion
4.019,-1730958,27,37.5,693.6,4400,Li-ion
4.025,-1820374,27,37.5,693.6,4400,Li-ion
4.019,-1778870,27,37.5,693.6,4400,Li-ion
4,-1637574,27,37.5,693.6,4400,Li-ion
4.027,-1872254,27,37.5,693.6,4400,Li-ion
4.02,-1507264,27,37.5,693.6,4400,Li-ion
3.993,-1542359,27,37.5,693.6,4400,Li-ion
4.017,-1791383,27,37.5,693.6,4400,Li-ion
4.068,-3626101,27,37.8,693.6,4400,Li-ion
4.205,-3625796,27,38.5,693.6,4400,Li-ion
4.209,-3626101,27,38.6,693.6,4400,Li-ion
4.219,-3632509,28,38.7,728.28,4400,Li-ion
4.219,-3632509,28,38.7,728.28,4400,Li-ion
4.05,-1824647,28,37.9,728.28,4400,Li-ion
4.059,-2021485,28,37.8,728.28,4400,Li-ion
4.06,-2046510,28,37.7,728.28,4400,Li-ion
4.048,-1941529,28,37.7,728.28,4400,Li-ion
4.037,-1846925,28,37.7,728.28,4400,Li-ion
4.05,-1741334,28,37.7,728.28,4400,Li-ion
4.041,-1708375,28,37.7,728.28,4400,Li-ion
4.038,-1604310,28,37.7,728.28,4400,Li-ion
4.041,-1875306,28,37.6,728.28,4400,Li-ion
4.043,-1831666,28,37.6,728.28,4400,Li-ion
4.035,-1816712,28,37.7,728.28,4400,Li-ion
4.03,-1862489,28,37.6,728.28,4400,Li-ion
4.015,-1785279,28,37.6,728.28,4400,Li-ion
4.034,-1849976,29,37.6,762.96,4400,Li-ion
4.026,-1772157,29,37.6,762.96,4400,Li-ion
4.027,-1703797,29,37.6,762.96,4400,Li-ion
4.03,-1821595,29,37.6,762.96,4400,Li-ion
4.198,-3622133,29,38.5,762.96,4400,Li-ion
4.211,-3617556,29,38.6,762.96,4400,Li-ion
4.02,-1861268,29,38.2,762.96,4400,Li-ion
4.037,-1977235,29,37.8,762.96,4400,Li-ion
4.044,-2000733,29,37.8,762.96,4400,Li-ion
4.058,-2038880,29,37.8,762.96,4400,Li-ion
4.053,-2008973,29,37.7,762.96,4400,Li-ion
4.021,-1739808,29,37.7,762.96,4400,Li-ion
4.014,-1987916,29,37.7,762.96,4400,Li-ion
4.044,-1952821,29,37.7,762.96,4400,Li-ion
4.034,-1896363,29,37.7,762.96,4400,Li-ion
4.018,-1895448,30,37.7,797.64,4400,Li-ion
4.022,-1924439,30,37.7,797.64,4400,Li-ion
4.006,-1813050,30,37.7,797.64,4400,Li-ion
4.03,-1809083,30,37.7,797.64,4400,Li-ion
4.038,-1874696,30,37.6,797.64,4400,Li-ion
4.036,-1778260,30,37.7,797.64,4400,Li-ion
4.012,-1588746,30,37.7,797.64,4400,Li-ion
4.023,-1729737,30,37.7,797.64,4400,Li-ion
4.02,-1676331,30,37.6,797.64,4400,Li-ion
4.209,-3594973,30,38.7,797.64,4400,Li-ion
4.214,-3636782,30,38.7,797.64,4400,Li-ion
4.228,-3633120,30,38.7,797.64,4400,Li-ion
4.228,-3627627,30,38.7,797.64,4400,Li-ion
4.048,-1824647,31,38.1,832.32,4400,Li-ion
4.074,-2052613,31,38,832.32,4400,Li-ion
4.065,-1990663,31,37.9,832.32,4400,Li-ion
4.058,-1938172,31,37.9,832.32,4400,Li-ion
4.057,-1924439,31,37.9,832.32,4400,Li-ion
4.054,-1925050,31,37.9,832.32,4400,Li-ion
4.054,-1818848,31,37.9,832.32,4400,Li-ion
4.048,-1899415,31,37.9,832.32,4400,Li-ion
3.996,-1779481,31,37.9,832.32,4400,Li-ion
4.035,-1658936,31,37.9,832.32,4400,Li-ion
4.031,-1612855,31,37.9,832.32,4400,Li-ion
4.038,-1849671,31,37.9,832.32,4400,Li-ion
4.012,-1670228,31,37.9,832.32,4400,Li-ion
4.036,-1810914,31,37.9,832.32,4400,Li-ion
4.021,-1710511,31,37.9,832.32,4400,Li-ion
4.033,-1730958,32,37.9,867,4400,Li-ion
4.028,-1766053,32,37.8,867,4400,Li-ion
4.014,-1569214,32,37.8,867,4400,Li-ion
4.025,-1667786,32,37.8,867,4400,Li-ion
4.02,-1605225,32,37.8,867,4400,Li-ion
4.024,-1671754,32,37.8,867,4400,Li-ion
4.2,-3374331,32,38.9,867,4400,Li-ion
4.214,-3577273,32,38.8,867,4400,Li-ion
4.217,-3585818,32,38.8,867,4400,Li-ion
4.225,-3570864,32,38.8,867,4400,Li-ion
4.067,-1922608,32,38.1,867,4400,Li-ion
4.074,-1918031,32,38,867,4400,Li-ion
4.026,-1970826,33,38,901.68,4400,Li-ion
4.067,-1720277,33,38,901.68,4400,Li-ion
4.061,-2005006,33,37.9,901.68,4400,Li-ion
4.052,-1931458,33,37.9,901.68,4400,Li-ion
4.057,-1921693,33,37.9,901.68,4400,Li-ion
4.035,-1925660,33,37.9,901.68,4400,Li-ion
4.055,-1939088,33,37.9,901.68,4400,Li-ion
4.037,-1855164,33,37.9,901.68,4400,Li-ion
4.043,-1831666,33,37.9,901.68,4400,Li-ion
4.026,-1712647,33,37.9,901.68,4400,Li-ion
4.017,-1812135,33,37.8,901.68,4400,Li-ion
4.033,-1809083,33,37.8,901.68,4400,Li-ion
4.042,-1563416,33,37.8,901.68,4400,Li-ion
4.039,-1530152,33,37.8,901.68,4400,Li-ion
4.038,-1763306,33,37.8,901.68,4400,Li-ion
4.204,-3500979,34,38.8,936.36,4400,Li-ion
4.215,-3524782,34,38.8,936.36,4400,Li-ion
4.22,-3525087,34,38.8,936.36,4400,Li-ion
4.22,-3529360,34,38.8,936.36,4400,Li-ion
4.22,-3524477,34,38.8,936.36,4400,Li-ion
4.22,-3526919,34,38.8,936.36,4400,Li-ion
4.231,-3530581,34,38.9,936.36,4400,Li-ion
4.237,-3479616,34,39,936.36,4400,Li-ion
4.235,-3475954,34,39,936.36,4400,Li-ion
4.236,-3421633,35,39,1005.72,4400,Li-ion
4.231,-3428042,35,39,1005.72,4400,Li-ion
4.225,-3373720,36,39,1005.72,4400,Li-ion
4.228,-3371584,36,39,1005.72,4400,Li-ion
4.223,-3327333,36,39,1005.72,4400,Li-ion
4.223,-3326113,36,39,1005.72,4400,Li-ion
4.219,-3279116,37,39,1075.08,4400,Li-ion
4.218,-3273317,37,39,1075.08,4400,Li-ion
4.221,-3273012,37,39.1,1075.08,4400,Li-ion
4.222,-3270266,38,39.1,1075.08,4400,Li-ion
4.221,-3267214,38,39.2,1075.08,4400,Li-ion
4.218,-3227236,38,39.2,1075.08,4400,Li-ion
4.219,-3218691,39,39.2,1109.76,4400,Li-ion
4.219,-3223268,39,39.2,1109.76,4400,Li-ion
4.22,-3224489,39,39.3,1109.76,4400,Li-ion
4.22,-3226931,39,39.3,1109.76,4400,Li-ion
4.22,-3209230,39,39.2,1109.76,4400,Li-ion
4.04,-1379090,39,39,1109.76,4400,Li-ion
4.032,-1260376,39,38.7,1109.76,4400,Li-ion
4.022,-1239930,39,38.6,1109.76,4400,Li-ion
4.007,-1146241,39,38.6,1109.76,4400,Li-ion
3.998,-1136780,39,38.5,1109.76,4400,Li-ion
3.997,-1044312,39,38.5,1109.76,4400,Li-ion
3.992,-1117554,40,38.5,1179.12,4400,Li-ion
3.964,-991516,40,38.5,1179.12,4400,Li-ion
4.012,-989685,40,38.5,1179.12,4400,Li-ion
3.978,-1052857,40,38.5,1179.12,4400,Li-ion
3.994,-1091614,40,38.5,1179.12,4400,Li-ion
4.018,-1399537,41,38.5,1179.12,4400,Li-ion
3.986,-1038819,41,38.5,1179.12,4400,Li-ion
3.985,-1184998,41,38.4,1179.12,4400,Li-ion
4.003,-1437989,41,38.4,1179.12,4400,Li-ion
4.029,-1468506,41,38.4,1179.12,4400,Li-ion
4.027,-1316834,41,38.4,1179.12,4400,Li-ion
4.026,-1580506,41,38.4,1179.12,4400,Li-ion
4.017,-1466370,41,38.4,1179.12,4400,Li-ion
4.021,-1220704,41,38.4,1179.12,4400,Li-ion
4.016,-1120606,41,38.4,1179.12,4400,Li-ion
3.977,-1092835,42,38.4,1179.12,4400,Li-ion
3.981,-1081543,42,38.4,1179.12,4400,Li-ion
4.02,-1403504,42,38.4,1179.12,4400,Li-ion
3.98,-1039734,42,38.4,1179.12,4400,Li-ion
3.957,-1104737,42,38.4,1179.12,4400,Li-ion
4.006,-1308289,42,38.4,1179.12,4400,Li-ion
4.008,-1335755,42,38.4,1179.12,4400,Li-ion
3.997,-1029053,42,38.4,1179.12,4400,Li-ion
3.99,-1144410,42,38.4,1179.12,4400,Li-ion
3.99,-939026,42,38.4,1179.12,4400,Li-ion
4.003,-1262513,42,38.4,1179.12,4400,Li-ion
4.003,-1311951,42,38.4,1179.12,4400,Li-ion
3.995,-1336670,42,38.4,1179.12,4400,Li-ion
3.995,-1390381,42,38.4,1179.12,4400,Li-ion
3.999,-1004639,42,38.4,1179.12,4400,Li-ion
3.999,-1098023,42,38.4,1213.8,4400,Li-ion
3.965,-1358033,42,38.4,1213.8,4400,Li-ion
3.965,-1355591,42,38.4,1213.8,4400,Li-ion
3.972,-1049805,42,38.4,1213.8,4400,Li-ion
3.972,-1071472,42,38.4,1213.8,4400,Li-ion
4.004,-1325074,42,38.4,1213.8,4400,Li-ion
4.004,-1384888,42,38.4,1213.8,4400,Li-ion
4.013,-1343384,42,38.4,1213.8,4400,Li-ion
4.013,-1275330,42,38.4,1213.8,4400,Li-ion
3.993,-1298218,42,38.4,1213.8,4400,Li-ion
3.993,-981751,42,38.4,1213.8,4400,Li-ion
3.975,-1351929,42,38.4,1213.8,4400,Li-ion
3.975,-1030884,42,38.4,1213.8,4400,Li-ion
3.975,-1325989,42,38.4,1213.8,4400,Li-ion
3.975,-786438,43,38.4,1213.8,4400,Li-ion
3.955,-707397,43,38.4,1213.8,4400,Li-ion
3.955,-758362,43,38.4,1213.8,4400,Li-ion
3.954,-1090088,43,38.4,1213.8,4400,Li-ion
3.989,-907288,43,38.4,1213.8,4400,Li-ion
3.989,-1111450,43,38.4,1213.8,4400,Li-ion
3.99,-1307984,43,38.4,1213.8,4400,Li-ion
3.99,-1279602,43,38.4,1213.8,4400,Li-ion
3.989,-978089,43,38.4,1213.8,4400,Li-ion
3.989,-1342774,43,38.4,1213.8,4400,Li-ion
4.004,-1345215,43,38.4,1213.8,4400,Li-ion
4.004,-1128540,43,38.4,1213.8,4400,Li-ion
4.017,-1229248,43,38.3,1213.8,4400,Li-ion
4.017,-1362305,43,38.3,1213.8,4400,Li-ion
3.975,-1076660,43,38.3,1213.8,4400,Li-ion
3.976,-870056,44,38.3,1248.48,4400,Li-ion
3.993,-1277466,44,38.3,1248.48,4400,Li-ion
3.993,-1373902,44,38.3,1248.48,4400,Li-ion
3.998,-1073303,44,38.3,1248.48,4400,Li-ion
3.998,-929260,44,38.3,1248.48,4400,Li-ion
3.991,-921936,44,38.3,1248.48,4400,Li-ion
3.991,-622864,44,38.3,1248.48,4400,Li-ion
3.966,-1285401,44,38.3,1248.48,4400,Li-ion
3.966,-1086121,44,38.3,1248.48,4400,Li-ion
3.97,-945740,44,38.3,1248.48,4400,Li-ion
3.97,-1216736,44,38.3,1248.48,4400,Li-ion
3.987,-1351014,44,38.3,1248.48,4400,Li-ion
3.987,-1378785,44,38.3,1248.48,4400,Li-ion
4.008,-1287537,44,38.3,1248.48,4400,Li-ion
4.008,-978089,44,38.3,1248.48,4400,Li-ion
4.011,-1241761,45,38.3,1283.16,4400,Li-ion
4.011,-1370240,45,38.3,1283.16,4400,Li-ion
4.01,-672913,45,38.3,1283.16,4400,Li-ion
4.01,-775757,45,38.3,1283.16,4400,Li-ion
3.946,-529480,45,38.3,1283.16,4400,Li-ion
3.946,-1102600,45,38.3,1283.16,4400,Li-ion
3.891,-515137,45,38.3,1283.16,4400,Li-ion
3.891,-566711,45,38.3,1283.16,4400,Li-ion
3.963,-504150,45,38.4,1283.16,4400,Li-ion
3.963,-994263,45,38.4,1283.16,4400,Li-ion
3.964,-1001892,45,38.4,1283.16,4400,Li-ion
3.964,-1002197,45,38.4,1283.16,4400,Li-ion
3.974,-948792,45,38.4,1283.16,4400,Li-ion
3.974,-982056,45,38.4,1283.16,4400,Li-ion
3.974,-1052857,45,38.4,1283.16,4400,Li-ion
3.974,-328064,45,38.4,1283.16,4400,Li-ion
3.947,-423279,45,38.4,1283.16,4400,Li-ion
4.022,-1387940,45,39,1283.16,4400,Li-ion
4.054,-1590882,45,38.6,1283.16,4400,Li-ion
4.036,-1612549,45,38.5,1283.16,4400,Li-ion
4.054,-1740113,45,38.5,1283.16,4400,Li-ion
4.073,-1722108,45,38.5,1283.16,4400,Li-ion
4.069,-1876832,45,38.4,1283.16,4400,Li-ion
4.069,-1873475,45,38.4,1283.16,4400,Li-ion
4.072,-1792603,45,38.4,1283.16,4400,Li-ion
4.062,-1759034,45,38.4,1283.16,4400,Li-ion
4.057,-1746827,45,38.4,1283.16,4400,Li-ion
4.065,-1712647,45,38.4,1283.16,4400,Li-ion
3.825,759583,45,37.9,1283.16,4400,Li-ion
3.977,-932923,45,38.3,1283.16,4400,Li-ion
3.977,-947266,45,38.3,1283.16,4400,Li-ion
3.983,-931397,46,38.4,1317.84,4400,Li-ion
3.983,-983277,46,38.4,1317.84,4400,Li-ion
3.972,-981446,46,38.4,1317.84,4400,Li-ion
3.972,-991822,46,38.4,1317.84,4400,Li-ion
3.978,-959778,46,38.4,1317.84,4400,Li-ion
4.196,-3215639,46,39.1,1317.84,4400,Li-ion
4.215,-3216555,46,39.1,1317.84,4400,Li-ion
4.221,-3222658,46,39,1317.84,4400,Li-ion
4.227,-3222353,46,39,1317.84,4400,Li-ion
3.98,-875244,46,38.4,1317.84,4400,Li-ion
3.977,-556335,47,38.3,1352.52,4400,Li-ion
4.121,-2444154,47,39.3,1352.52,4400,Li-ion
4.216,-3225710,47,39.1,1352.52,4400,Li-ion
4.105,-1856995,47,38.4,1352.52,4400,Li-ion
4.101,-2005006,47,38.3,1352.52,4400,Li-ion
4.094,-1914674,48,38.3,1352.52,4400,Li-ion
4.08,-1806641,48,38.2,1352.52,4400,Li-ion
4.089,-1901246,48,38.2,1352.52,4400,Li-ion
4.09,-1774903,48,38.2,1352.52,4400,Li-ion
4.084,-1791383,48,38.1,1352.52,4400,Li-ion
4.089,-1596070,48,38.1,1352.52,4400,Li-ion
4.086,-1850892,48,38.1,1352.52,4400,Li-ion
4.078,-1784364,48,38.1,1352.52,4400,Li-ion
4.071,-1726075,48,38,1352.52,4400,Li-ion
4.07,-1697388,48,38,1352.52,4400,Li-ion
4.071,-1712952,49,38,1387.2,4400,Li-ion
4.065,-1561890,49,38,1387.2,4400,Li-ion
4.072,-1464844,49,38,1387.2,4400,Li-ion
4.067,-1687928,49,38,1387.2,4400,Li-ion
4.068,-1647950,49,38,1387.2,4400,Li-ion
4.094,-1808167,49,38.4,1387.2,4400,Li-ion
4.221,-3219606,49,38.6,1387.2,4400,Li-ion
4.229,-3218386,49,38.7,1387.2,4400,Li-ion
4.236,-3219301,49,38.7,1387.2,4400,Li-ion
3.903,-968628,49,38.3,1387.2,4400,Li-ion
4.004,-838013,49,38.1,1387.2,4400,Li-ion
4.004,-848389,49,38.1,1387.2,4400,Li-ion
3.99,-911255,49,38,1387.2,4400,Li-ion
3.99,-909424,49,38,1387.2,4400,Li-ion
3.989,-1006775,50,38.1,1421.88,4400,Li-ion
3.989,-1010437,50,38.1,1421.88,4400,Li-ion
4.076,-2553407,50,39.1,1421.88,4400,Li-ion
4.22,-3221437,50,38.9,1421.88,4400,Li-ion
4.228,-3221743,50,39,1421.88,4400,Li-ion
4.235,-3217165,50,38.9,1421.88,4400,Li-ion
4.24,-3218080,50,38.9,1421.88,4400,Li-ion
4.244,-3219911,50,38.9,1421.88,4400,Li-ion
4.25,-3228456,51,39,1456.56,4400,Li-ion
4.252,-3223268,51,39.1,1456.56,4400,Li-ion
4.254,-3220827,51,39,1456.56,4400,Li-ion
4.255,-3222963,52,39,1456.56,4400,Li-ion
4.257,-3214723,52,39.1,1456.56,4400,Li-ion
4.134,-1940919,52,38.6,1456.56,4400,Li-ion
4.131,-1858216,52,38.4,1456.56,4400,Li-ion
4.123,-1919251,52,38.4,1456.56,4400,Li-ion
4.122,-1921082,52,38.4,1456.56,4400,Li-ion
4.107,-1785279,52,38.4,1456.56,4400,Li-ion
4.105,-1497803,52,38.4,1456.56,4400,Li-ion
4.109,-1747437,53,38.4,1525.92,4400,Li-ion
4.088,-1571961,53,38.3,1525.92,4400,Li-ion
4.113,-1726990,53,38.4,1525.92,4400,Li-ion
4.09,-1665650,53,38.3,1525.92,4400,Li-ion
4.096,-1722718,53,38.4,1525.92,4400,Li-ion
4.104,-1837159,53,38.4,1525.92,4400,Li-ion
4.099,-1745911,53,38.4,1525.92,4400,Li-ion
4.102,-1765137,53,38.4,1525.92,4400,Li-ion
4.1,-1744996,53,38.4,1525.92,4400,Li-ion
4.092,-1708680,53,38.3,1525.92,4400,Li-ion
4.239,-3197939,53,39.2,1525.92,4400,Li-ion
4.25,-3222048,53,39,1525.92,4400,Li-ion
4.257,-3225405,54,39.1,1560.6,4400,Li-ion
4.26,-3223879,54,39.1,1560.6,4400,Li-ion
4.263,-3220217,54,39.1,1560.6,4400,Li-ion
4.265,-3220827,54,39.2,1560.6,4400,Li-ion
4.269,-3221743,54,39.2,1560.6,4400,Li-ion
4.271,-3218080,54,39.2,1560.6,4400,Li-ion
4.273,-3222658,55,39.3,1595.28,4400,Li-ion
4.274,-3226015,55,39.3,1595.28,4400,Li-ion
4.276,-3223574,56,39.3,1595.28,4400,Li-ion
4.275,-3220522,56,39.4,1595.28,4400,Li-ion
4.277,-3226931,56,39.4,1595.28,4400,Li-ion
4.281,-3218691,56,39.5,1595.28,4400,Li-ion
4.281,-3219911,56,39.5,1595.28,4400,Li-ion
4.121,-1591187,57,39,1664.64,4400,Li-ion
4.142,-1899110,57,38.8,1664.64,4400,Li-ion
4.145,-1942750,57,38.8,1664.64,4400,Li-ion
4.145,-1955262,57,38.8,1664.64,4400,Li-ion
4.135,-1922303,57,38.8,1664.64,4400,Li-ion
4.109,-1405030,57,38.7,1664.64,4400,Li-ion
4.105,-1405945,58,38.7,1664.64,4400,Li-ion
4.134,-1835328,58,38.7,1664.64,4400,Li-ion
4.128,-1807862,58,38.7,1664.64,4400,Li-ion
4.113,-1671143,58,38.7,1664.64,4400,Li-ion
4.125,-1807252,58,38.7,1664.64,4400,Li-ion
4.127,-1770325,58,38.7,1664.64,4400,Li-ion
4.117,-1709901,58,38.7,1664.64,4400,Li-ion
4.123,-1666566,58,38.7,1664.64,4400,Li-ion
4.123,-1769410,58,38.7,1664.64,4400,Li-ion
4.11,-1686707,59,38.7,1699.32,4400,Li-ion
4.1,-1549073,59,38.7,1699.32,4400,Li-ion
4.117,-1692200,59,38.7,1699.32,4400,Li-ion
4.106,-1603089,59,38.7,1699.32,4400,Li-ion
4.1,-1560364,59,38.7,1699.32,4400,Li-ion
4.071,-1378785,59,38.7,1699.32,4400,Li-ion
4.138,-3214113,59,39,1699.32,4400,Li-ion
4.268,-3218386,59,39.4,1699.32,4400,Li-ion
4.272,-3221437,59,39.4,1699.32,4400,Li-ion
4.272,-3227236,59,39.4,1699.32,4400,Li-ion
4.28,-3221743,59,39.4,1699.32,4400,Li-ion
4.28,-3226625,59,39.4,1699.32,4400,Li-ion
4.284,-3227846,59,39.5,1699.32,4400,Li-ion
4.284,-3218691,59,39.5,1699.32,4400,Li-ion
4.285,-3225099,59,39.5,1699.32,4400,Li-ion
4.279,-3121340,60,39.5,1734,4400,Li-ion
4.278,-3119814,60,39.5,1734,4400,Li-ion
4.278,-3118898,60,39.5,1734,4400,Li-ion
4.28,-3121645,60,39.4,1734,4400,Li-ion
4.28,-3122560,60,39.4,1734,4400,Li-ion
4.281,-3120729,60,39.5,1734,4400,Li-ion
4.281,-3121034,60,39.5,1734,4400,Li-ion
4.283,-3121645,60,39.5,1734,4400,Li-ion
4.283,-3124086,60,39.5,1734,4400,Li-ion
4.284,-3122560,60,39.5,1734,4400,Li-ion
4.284,-3123171,60,39.5,1734,4400,Li-ion
4.285,-3119509,60,39.5,1734,4400,Li-ion
4.285,-3123171,60,39.5,1734,4400,Li-ion
4.277,-3022768,60,39.5,1734,4400,Li-ion
4.277,-3019411,60,39.5,1734,4400,Li-ion
4.279,-3017580,61,39.6,1803.36,4400,Li-ion
4.28,-3024599,61,39.6,1803.36,4400,Li-ion
4.28,-3025209,61,39.5,1803.36,4400,Li-ion
4.28,-3018190,62,39.6,1803.36,4400,Li-ion
4.281,-3021242,62,39.6,1803.36,4400,Li-ion
4.282,-3014223,62,39.6,1803.36,4400,Li-ion
4.282,-3013613,62,39.6,1803.36,4400,Li-ion
4.286,-3022768,63,39.7,1838.04,4400,Li-ion
4.287,-3027956,63,39.7,1838.04,4400,Li-ion
4.282,-2961733,63,39.6,1838.04,4400,Li-ion
4.279,-2922365,64,39.7,1838.04,4400,Li-ion
4.277,-2918703,64,39.6,1838.04,4400,Li-ion
4.279,-2915041,64,39.7,1838.04,4400,Li-ion
4.28,-2918703,64,39.7,1838.04,4400,Li-ion
4.28,-2910463,64,39.7,1838.04,4400,Li-ion
4.28,-2911379,64,39.7,1838.04,4400,Li-ion
4.281,-2914735,65,39.8,1907.4,4400,Li-ion
4.281,-2919008,65,39.8,1907.4,4400,Li-ion
4.285,-2920229,65,39.9,1907.4,4400,Li-ion
4.285,-2920534,65,39.9,1907.4,4400,Li-ion
4.282,-2844850,65,39.8,1907.4,4400,Li-ion
4.282,-2818910,65,39.8,1907.4,4400,Li-ion
4.195,-1897279,65,39.5,1907.4,4400,Li-ion
4.187,-1774598,65,39.4,1907.4,4400,Li-ion
4.183,-1983033,66,39.4,1942.08,4400,Li-ion
4.176,-1775819,66,39.4,1942.08,4400,Li-ion
4.18,-1827699,66,39.4,1942.08,4400,Li-ion
4.178,-1852113,66,39.4,1942.08,4400,Li-ion
4.181,-1774293,66,39.4,1942.08,4400,Li-ion
4.164,-1673585,66,39.4,1942.08,4400,Li-ion
4.135,-1709901,67,39.3,1942.08,4400,Li-ion
4.165,-1693726,67,39.3,1942.08,4400,Li-ion
4.166,-1794129,67,39.3,1942.08,4400,Li-ion
4.166,-1788636,67,39.3,1942.08,4400,Li-ion
4.156,-1712037,67,39.3,1942.08,4400,Li-ion
4.163,-1661988,67,39.3,1942.08,4400,Li-ion
4.157,-1655884,67,39.3,1942.08,4400,Li-ion
4.144,-1622620,67,39.3,1942.08,4400,Li-ion
4.149,-1672669,67,39.3,1942.08,4400,Li-ion
4.151,-1727906,68,39.3,1976.76,4400,Li-ion
4.143,-1646424,68,39.3,1976.76,4400,Li-ion
4.131,-1492920,68,39.3,1976.76,4400,Li-ion
4.146,-1474610,68,39.3,1976.76,4400,Li-ion
4.108,-1227723,68,39.2,1976.76,4400,Li-ion
4.137,-1500550,68,39.3,1976.76,4400,Li-ion
4.138,-1405945,68,39.3,1976.76,4400,Li-ion
4.12,-1548463,68,39.2,1976.76,4400,Li-ion
4.143,-1534424,68,39.2,1976.76,4400,Li-ion
4.139,-1523743,68,39.2,1976.76,4400,Li-ion
4.132,-1411133,68,39.2,1976.76,4400,Li-ion
4.137,-1510316,68,39.2,1976.76,4400,Li-ion
4.26,-2802736,68,40,1976.76,4400,Li-ion
4.269,-2817995,68,39.7,1976.76,4400,Li-ion
4.272,-2816774,68,39.7,1976.76,4400,Li-ion
4.277,-1774598,69,39.4,2011.44,4400,Li-ion
4.198,-2000123,69,39.3,2011.44,4400,Li-ion
4.18,-1828614,69,39.2,2011.44,4400,Li-ion
4.187,-1925355,69,39.2,2011.44,4400,Li-ion
4.186,-1923219,69,39.2,2011.44,4400,Li-ion
4.179,-1835328,69,39.1,2011.44,4400,Li-ion
4.17,-1724244,69,39.1,2011.44,4400,Li-ion
4.179,-1837464,69,39.1,2011.44,4400,Li-ion
4.167,-1660462,69,39.1,2011.44,4400,Li-ion
4.176,-1809998,69,39.1,2011.44,4400,Li-ion
4.177,-1806031,69,39.1,2011.44,4400,Li-ion
4.171,-1756287,69,39.1,2011.44,4400,Li-ion
4.173,-1617432,69,39.1,2011.44,4400,Li-ion
4.177,-1693421,69,39.1,2011.44,4400,Li-ion
4.166,-1589966,69,39.1,2011.44,4400,Li-ion
4.171,-1482545,70,39.1,2011.44,4400,Li-ion
4.171,-1749574,70,39.1,2011.44,4400,Li-ion
4.168,-1725465,70,39.1,2011.44,4400,Li-ion
4.162,-1630860,70,39.1,2011.44,4400,Li-ion
4.116,-1222535,70,39,2011.44,4400,Li-ion
4.166,-1539918,70,39,2011.44,4400,Li-ion
4.16,-1302796,70,39,2011.44,4400,Li-ion
4.158,-1429444,70,39,2011.44,4400,Li-ion
4.158,-1621705,70,39,2011.44,4400,Li-ion
4.275,-2799684,70,39.7,2011.44,4400,Li-ion
4.282,-2812502,70,39.6,2011.44,4400,Li-ion
4.278,-2712709,70,39.6,2011.44,4400,Li-ion
4.283,-2714540,71,39.6,2080.8,4400,Li-ion
4.285,-2715150,71,39.5,2080.8,4400,Li-ion
4.279,-2610170,71,39.6,2080.8,4400,Li-ion
4.278,-2604677,71,39.4,2080.8,4400,Li-ion
4.28,-2608644,71,39.5,2080.8,4400,Li-ion
4.28,-2610475,71,39.5,2080.8,4400,Li-ion
4.281,-2609865,71,39.5,2080.8,4400,Li-ion
4.281,-2612916,71,39.5,2080.8,4400,Li-ion
4.282,-2609559,71,39.4,2080.8,4400,Li-ion
4.284,-2606813,71,39.5,2080.8,4400,Li-ion
4.286,-2612916,72,39.6,2115.48,4400,Li-ion
4.285,-2612306,72,39.5,2115.48,4400,Li-ion
4.287,-2605287,72,39.5,2115.48,4400,Li-ion
4.278,-2509767,72,39.5,2115.48,4400,Li-ion
4.278,-2509767,72,39.5,2115.48,4400,Li-ion
4.278,-2507020,72,39.5,2115.48,4400,Li-ion
4.282,-2506410,72,39.4,2115.48,4400,Li-ion
4.282,-2510377,72,39.4,2115.48,4400,Li-ion
4.282,-2515260,72,39.4,2115.48,4400,Li-ion
4.283,-2504884,73,39.6,2150.16,4400,Li-ion
4.185,-1546937,73,39.3,2150.16,4400,Li-ion
4.156,-1274109,73,39.2,2150.16,4400,Li-ion
4.19,-1656495,73,39.1,2150.16,4400,Li-ion
4.206,-1410218,73,39.1,2150.16,4400,Li-ion
4.202,-1754762,73,39.1,2150.16,4400,Li-ion
4.208,-1737672,73,39.1,2150.16,4400,Li-ion
4.198,-1706544,73,39.1,2150.16,4400,Li-ion
4.207,-1773072,73,39.1,2150.16,4400,Li-ion
4.205,-1773072,73,39,2150.16,4400,Li-ion
4.135,-951233,73,39,2150.16,4400,Li-ion
4.197,-1739808,73,39.1,2150.16,4400,Li-ion
4.172,-1394959,73,39,2150.16,4400,Li-ion
4.197,-1291810,73,39,2150.16,4400,Li-ion
4.195,-1470643,73,39,2150.16,4400,Li-ion
4.195,-1687928,74,39,2184.84,4400,Li-ion
4.19,-1644593,74,39,2184.84,4400,Li-ion
4.195,-1656190,74,39,2184.84,4400,Li-ion
4.185,-1330567,74,39,2184.84,4400,Li-ion
4.187,-1410523,74,39,2184.84,4400,Li-ion
4.188,-1621705,74,39,2184.84,4400,Li-ion
4.177,-1504517,74,39,2184.84,4400,Li-ion
4.181,-1471253,74,39,2184.84,4400,Li-ion
4.276,-2499696,74,39.5,2184.84,4400,Li-ion
4.28,-2500001,74,39.5,2184.84,4400,Li-ion
4.21,-1900941,74,39.1,2184.84,4400,Li-ion
4.214,-1844788,74,39,2184.84,4400,Li-ion
4.21,-1884766,74,39,2184.84,4400,Li-ion
4.226,-1911012,74,39,2184.84,4400,Li-ion
4.216,-1801148,74,39,2184.84,4400,Li-ion
4.186,-1810914,75,39,2219.52,4400,Li-ion
4.216,-1623536,75,39,2219.52,4400,Li-ion
4.212,-1803590,75,39,2219.52,4400,Li-ion
4.214,-1782838,75,39,2219.52,4400,Li-ion
4.212,-1767579,75,39,2219.52,4400,Li-ion
4.209,-1732178,75,39,2219.52,4400,Li-ion
4.205,-1697083,76,39,2219.52,4400,Li-ion
4.208,-1689454,76,39,2219.52,4400,Li-ion
4.197,-1672974,76,38.9,2219.52,4400,Li-ion
4.197,-1654053,76,39,2219.52,4400,Li-ion
4.187,-1615906,76,38.9,2219.52,4400,Li-ion
4.195,-1553345,76,39,2219.52,4400,Li-ion
4.195,-1638795,76,38.9,2219.52,4400,Li-ion
4.179,-1626588,76,38.9,2219.52,4400,Li-ion
4.193,-1564637,76,38.9,2219.52,4400,Li-ion
4.195,-1596680,77,38.9,2254.2,4400,Li-ion
4.284,-2501832,77,39.4,2254.2,4400,Li-ion
4.294,-2360536,77,39.3,2254.2,4400,Li-ion
4.282,-2408143,77,39.2,2254.2,4400,Li-ion
4.282,-2403566,77,39.2,2254.2,4400,Li-ion
4.282,-2297670,77,39.2,2254.2,4400,Li-ion
4.279,-2305604,77,39.2,2254.2,4400,Li-ion
4.283,-2303163,77,39.1,2254.2,4400,Li-ion
4.283,-2303468,77,39.1,2254.2,4400,Li-ion
4.286,-2297364,77,39.2,2254.2,4400,Li-ion
4.287,-2304994,78,39.2,2288.88,4400,Li-ion
4.278,-2199708,78,39.1,2288.88,4400,Li-ion
4.279,-2209474,78,39,2288.88,4400,Li-ion
4.281,-2203675,78,39,2288.88,4400,Li-ion
4.281,-2204591,78,39,2288.88,4400,Li-ion
4.283,-2205201,78,39.1,2288.88,4400,Li-ion
4.285,-2198793,78,39,2288.88,4400,Li-ion
4.285,-2204896,78,39.1,2288.88,4400,Li-ion
4.285,-2204591,79,39,2323.56,4400,Li-ion
4.287,-2205201,79,39.1,2323.56,4400,Li-ion
4.287,-2205812,79,39.1,2323.56,4400,Li-ion
4.289,-2201844,79,39.2,2323.56,4400,Li-ion
4.279,-2103883,79,39.1,2323.56,4400,Li-ion
4.284,-2123414,79,39.1,2323.56,4400,Li-ion
4.283,-2116700,79,39.1,2323.56,4400,Li-ion
4.283,-2099916,80,39,2358.24,4400,Li-ion
4.282,-2091676,80,39.2,2358.24,4400,Li-ion
4.284,-2098695,80,39.1,2358.24,4400,Li-ion
4.286,-2104493,80,39.1,2358.24,4400,Li-ion
4.288,-2100526,80,39,2358.24,4400,Li-ion
4.278,-1999207,80,39,2358.24,4400,Li-ion
4.278,-2002259,80,39,2358.24,4400,Li-ion
4.281,-2003175,81,39,2392.92,4400,Li-ion
4.28,-2000733,81,39,2392.92,4400,Li-ion
4.283,-2002259,81,39,2392.92,4400,Li-ion
4.284,-2004090,81,39,2392.92,4400,Li-ion
4.286,-1996156,81,38.9,2392.92,4400,Li-ion
4.276,-1963807,81,38.9,2392.92,4400,Li-ion
4.278,-1899110,82,39,2427.6,4400,Li-ion
4.278,-1901856,82,38.9,2427.6,4400,Li-ion
4.278,-1896974,82,38.9,2427.6,4400,Li-ion
4.28,-1902162,82,38.9,2427.6,4400,Li-ion
4.28,-1897584,82,38.9,2427.6,4400,Li-ion
4.283,-1898805,82,38.8,2427.6,4400,Li-ion
4.285,-1901856,82,39,2427.6,4400,Li-ion
4.287,-1889344,83,39,2462.28,4400,Li-ion
4.287,-1896974,83,38.9,2462.28,4400,Li-ion
4.279,-1792909,83,38.8,2462.28,4400,Li-ion
4.278,-1794434,83,38.9,2462.28,4400,Li-ion
4.277,-1796876,83,38.9,2462.28,4400,Li-ion
4.28,-1791993,83,38.9,2462.28,4400,Li-ion
4.28,-1795655,84,38.9,2496.96,4400,Li-ion
4.28,-1802979,84,38.9,2496.96,4400,Li-ion
4.283,-1793519,84,38.8,2496.96,4400,Li-ion
4.285,-1798096,84,38.8,2496.96,4400,Li-ion
4.288,-1793824,84,38.8,2496.96,4400,Li-ion
4.294,-1849976,84,38.8,2496.96,4400,Li-ion
4.293,-1838990,85,38.8,2531.64,4400,Li-ion
4.293,-1831666,85,38.8,2531.64,4400,Li-ion
4.294,-1824036,85,38.9,2531.64,4400,Li-ion
4.293,-1819154,85,38.8,2531.64,4400,Li-ion
4.293,-1812440,85,38.8,2531.64,4400,Li-ion
4.294,-1805116,85,38.8,2531.64,4400,Li-ion
4.293,-1800538,85,38.8,2531.64,4400,Li-ion
4.293,-1797791,85,38.8,2531.64,4400,Li-ion
4.293,-1795045,85,38.8,2531.64,4400,Li-ion
4.293,-1786500,85,38.9,2531.64,4400,Li-ion
4.293,-1780091,85,38.8,2531.64,4400,Li-ion
4.293,-1777345,85,38.9,2531.64,4400,Li-ion
4.294,-1775819,85,38.9,2531.64,4400,Li-ion
4.293,-1772157,85,38.9,2531.64,4400,Li-ion
4.294,-1764527,85,38.9,2531.64,4400,Li-ion
4.293,-1757813,86,38.9,2566.32,4400,Li-ion
4.294,-1753236,86,38.9,2566.32,4400,Li-ion
4.294,-1747437,86,38.9,2566.32,4400,Li-ion
4.293,-1742554,86,38.9,2566.32,4400,Li-ion
4.293,-1739503,86,39,2566.32,4400,Li-ion
4.293,-1741029,86,39,2566.32,4400,Li-ion
4.294,-1731263,86,38.9,2566.32,4400,Li-ion
4.293,-1727296,86,38.9,2566.32,4400,Li-ion
4.293,-1722108,86,38.9,2566.32,4400,Li-ion
4.293,-1715699,86,39,2566.32,4400,Li-ion
4.293,-1708985,86,39,2566.32,4400,Li-ion
4.202,-1108704,86,39,2566.32,4400,Li-ion
4.243,-1006775,87,38.8,2566.32,4400,Li-ion
4.24,-1241455,87,38.7,2566.32,4400,Li-ion
4.24,-1232911,87,38.7,2566.32,4400,Li-ion
4.235,-1125794,87,38.7,2566.32,4400,Li-ion
4.235,-1259156,87,38.7,2566.32,4400,Li-ion
4.221,-1015320,87,38.7,2566.32,4400,Li-ion
4.221,-754395,87,38.7,2566.32,4400,Li-ion
4.235,-938111,87,38.7,2566.32,4400,Li-ion
4.235,-712585,87,38.7,2566.32,4400,Li-ion
4.196,-957031,87,38.6,2566.32,4400,Li-ion
4.196,-1281434,87,38.6,2566.32,4400,Li-ion
4.241,-1159973,87,38.6,2566.32,4400,Li-ion
4.241,-1274720,87,38.6,2566.32,4400,Li-ion
4.237,-1189881,87,38.6,2566.32,4400,Li-ion
4.237,-1139527,87,38.6,2566.32,4400,Li-ion
4.224,-1147766,87,38.6,2601,4400,Li-ion
4.224,-1211548,87,38.6,2601,4400,Li-ion
4.225,-1213684,87,38.6,2601,4400,Li-ion
4.225,-1166382,87,38.6,2601,4400,Li-ion
4.249,-1254273,87,38.6,2601,4400,Li-ion
4.249,-885010,87,38.6,2601,4400,Li-ion
4.213,-1022034,87,38.6,2601,4400,Li-ion
4.213,-1258240,87,38.6,2601,4400,Li-ion
4.232,-648193,87,38.6,2601,4400,Li-ion
4.204,-840454,87,38.6,2601,4400,Li-ion
4.204,-1175232,87,38.6,2601,4400,Li-ion
4.246,-1174317,87,38.6,2601,4400,Li-ion
4.246,-1042176,87,38.6,2601,4400,Li-ion
4.251,-1108704,87,38.6,2601,4400,Li-ion
4.251,-1191712,87,38.6,2601,4400,Li-ion
4.211,-852966,88,38.6,2601,4400,Li-ion
4.211,-1194458,88,38.6,2601,4400,Li-ion
4.24,-1216736,88,38.6,2601,4400,Li-ion
4.24,-1067810,88,38.6,2601,4400,Li-ion
4.232,-1120301,88,38.6,2601,4400,Li-ion
4.232,-851441,88,38.6,2601,4400,Li-ion
4.223,-1095276,88,38.6,2601,4400,Li-ion
4.223,-893555,88,38.6,2601,4400,Li-ion
4.243,-1264344,88,38.6,2601,4400,Li-ion
4.243,-1097412,88,38.6,2601,4400,Li-ion
4.236,-1272889,88,38.6,2601,4400,Li-ion
4.236,-857849,88,38.6,2601,4400,Li-ion
4.226,-1030274,88,38.6,2601,4400,Li-ion
4.226,-926819,88,38.6,2601,4400,Li-ion
4.243,-1205140,88,38.6,2601,4400,Li-ion
4.243,-1184998,88,38.6,2635.68,4400,Li-ion
4.227,-1224060,88,38.6,2635.68,4400,Li-ion
4.227,-985718,88,38.6,2635.68,4400,Li-ion
4.25,-839844,88,38.7,2635.68,4400,Li-ion
4.25,-962830,88,38.7,2635.68,4400,Li-ion
4.238,-1182557,88,38.7,2635.68,4400,Li-ion
4.238,-1105347,88,38.7,2635.68,4400,Li-ion
4.233,-921936,88,38.7,2635.68,4400,Li-ion
4.233,-1191407,88,38.7,2635.68,4400,Li-ion
4.234,-1241761,88,38.7,2635.68,4400,Li-ion
4.234,-888672,88,38.7,2635.68,4400,Li-ion
4.206,-1307068,88,38.7,2635.68,4400,Li-ion
4.206,-1168213,88,38.7,2635.68,4400,Li-ion
4.217,-1280213,88,38.7,2635.68,4400,Li-ion
4.217,-1031800,88,38.7,2635.68,4400,Li-ion
4.249,-1191407,89,38.7,2670.36,4400,Li-ion
4.249,-1040039,89,38.7,2670.36,4400,Li-ion
4.244,-915833,89,38.7,2670.36,4400,Li-ion
4.244,-1170655,89,38.7,2670.36,4400,Li-ion
4.243,-796509,89,38.7,2670.36,4400,Li-ion
4.245,-1200562,89,38.7,2670.36,4400,Li-ion
4.245,-1223145,89,38.7,2670.36,4400,Li-ion
4.218,-741272,89,38.7,2670.36,4400,Li-ion
4.218,-1222840,89,38.7,2670.36,4400,Li-ion
4.238,-1044312,89,38.7,2670.36,4400,Li-ion
4.238,-1152039,89,38.7,2670.36,4400,Li-ion
4.252,-1250000,89,38.8,2670.36,4400,Li-ion
4.252,-1031800,89,38.8,2670.36,4400,Li-ion
4.195,-707397,89,38.7,2670.36,4400,Li-ion
4.195,-1035767,89,38.7,2670.36,4400,Li-ion
4.241,-1119995,89,38.8,2670.36,4400,Li-ion
4.241,-999756,89,38.8,2670.36,4400,Li-ion
4.221,-880737,89,38.8,2670.36,4400,Li-ion
4.221,-853577,89,38.8,2670.36,4400,Li-ion
4.251,-787964,89,38.8,2670.36,4400,Li-ion
4.251,-1021729,89,38.8,2670.36,4400,Li-ion
4.25,-1225281,89,38.8,2670.36,4400,Li-ion
4.25,-1168824,89,38.8,2670.36,4400,Li-ion
4.234,-1137085,89,38.7,2670.36,4400,Li-ion
4.234,-1210633,89,38.7,2670.36,4400,Li-ion
4.225,-1116333,89,38.7,2670.36,4400,Li-ion
4.225,-1235047,89,38.7,2670.36,4400,Li-ion
4.242,-705261,89,38.7,2670.36,4400,Li-ion
4.242,-997009,89,38.7,2670.36,4400,Li-ion
4.253,-1080933,89,38.7,2670.36,4400,Li-ion
4.212,-787048,90,38.7,2705.04,4400,Li-ion
4.227,-1114197,90,38.7,2705.04,4400,Li-ion
4.227,-1078797,90,38.7,2705.04,4400,Li-ion
4.241,-1167298,90,38.7,2705.04,4400,Li-ion
4.241,-1072998,90,38.7,2705.04,4400,Li-ion
4.262,-1250916,90,38.7,2705.04,4400,Li-ion
4.262,-1259766,90,38.7,2705.04,4400,Li-ion
4.21,-1268616,90,38.7,2705.04,4400,Li-ion
4.21,-888672,90,38.7,2705.04,4400,Li-ion
4.226,-793457,90,38.7,2705.04,4400,Li-ion
4.226,-1010742,90,38.7,2705.04,4400,Li-ion
4.254,-1185608,90,38.7,2705.04,4400,Li-ion
4.254,-1275330,90,38.7,2705.04,4400,Li-ion
4.268,-953675,90,38.7,2705.04,4400,Li-ion
4.268,-1134644,90,38.7,2705.04,4400,Li-ion
4.263,-1209412,90,38.7,2705.04,4400,Li-ion
4.263,-1275025,90,38.7,2705.04,4400,Li-ion
4.26,-1199341,90,38.7,2705.04,4400,Li-ion
4.26,-1251526,90,38.7,2705.04,4400,Li-ion
4.264,-1231385,90,38.7,2705.04,4400,Li-ion
4.264,-1174317,90,38.7,2705.04,4400,Li-ion
4.263,-1286622,90,38.7,2705.04,4400,Li-ion
4.263,-1221619,90,38.7,2705.04,4400,Li-ion
4.265,-1013184,90,38.7,2705.04,4400,Li-ion
4.212,-654602,90,38.7,2705.04,4400,Li-ion
4.212,-1019287,90,38.7,2705.04,4400,Li-ion
4.204,-882568,90,38.7,2705.04,4400,Li-ion
4.204,-843811,90,38.7,2705.04,4400,Li-ion
4.228,-728455,90,38.7,2705.04,4400,Li-ion
4.228,-870972,90,38.7,2705.04,4400,Li-ion
4.256,-1104431,91,38.7,2739.72,4400,Li-ion
4.256,-1068421,91,38.7,2739.72,4400,Li-ion
4.215,-947266,91,38.7,2739.72,4400,Li-ion
4.215,-639648,91,38.7,2739.72,4400,Li-ion
4.203,-618286,91,38.7,2739.72,4400,Li-ion
4.203,-678101,91,38.7,2739.72,4400,Li-ion
4.196,-597229,91,38.7,2739.72,4400,Li-ion
4.196,-626526,91,38.7,2739.72,4400,Li-ion
4.192,-700989,91,38.7,2739.72,4400,Li-ion
4.192,-592956,91,38.7,2739.72,4400,Li-ion
4.191,-803833,91,38.7,2739.72,4400,Li-ion
4.191,-467224,91,38.7,2739.72,4400,Li-ion
4.188,-497436,91,38.7,2739.72,4400,Li-ion
4.213,-770569,91,38.7,2739.72,4400,Li-ion
4.213,-664978,91,38.7,2739.72,4400,Li-ion
4.195,-562439,91,38.7,2739.72,4400,Li-ion
4.195,-555725,91,38.7,2739.72,4400,Li-ion
4.191,-849609,91,38.7,2739.72,4400,Li-ion
4.191,-639038,91,38.7,2739.72,4400,Li-ion
4.218,-829468,91,38.7,2739.72,4400,Li-ion
4.218,-675659,91,38.7,2739.72,4400,Li-ion
4.255,-1050415,91,38.7,2739.72,4400,Li-ion
4.255,-1114807,91,38.7,2739.72,4400,Li-ion
4.251,-938721,91,38.7,2739.72,4400,Li-ion
4.251,-946350,91,38.7,2739.72,4400,Li-ion
4.253,-919495,91,38.8,2739.72,4400,Li-ion
4.253,-1279297,91,38.8,2739.72,4400,Li-ion
4.264,-1400757,91,38.8,2739.72,4400,Li-ion
4.262,-1144715,91,38.8,2739.72,4400,Li-ion
4.262,-1249695,91,38.8,2739.72,4400,Li-ion
4.273,-1082459,91,38.8,2739.72,4400,Li-ion
4.273,-1234742,91,38.8,2739.72,4400,Li-ion
4.267,-1280213,91,38.8,2739.72,4400,Li-ion
4.267,-1303406,91,38.8,2739.72,4400,Li-ion
4.264,-1289063,91,38.8,2739.72,4400,Li-ion
4.264,-981140,91,38.8,2739.72,4400,Li-ion
4.251,-1082154,91,38.9,2739.72,4400,Li-ion
4.251,-966797,91,38.9,2739.72,4400,Li-ion
4.229,-1193543,91,38.9,2739.72,4400,Li-ion
4.229,-756226,91,38.9,2739.72,4400,Li-ion
4.246,-1161805,91,38.9,2739.72,4400,Li-ion
4.246,-1290589,91,38.9,2739.72,4400,Li-ion
4.276,-949097,91,38.9,2739.72,4400,Li-ion
4.276,-1007385,91,38.9,2739.72,4400,Li-ion
4.261,-932007,92,38.9,2774.4,4400,Li-ion
4.261,-754089,92,38.9,2774.4,4400,Li-ion
4.226,-901184,92,39,2774.4,4400,Li-ion
4.226,-855103,92,39,2774.4,4400,Li-ion
4.246,-1186219,92,39,2774.4,4400,Li-ion
4.246,-1040039,92,39,2774.4,4400,Li-ion
4.231,-1136475,92,39,2774.4,4400,Li-ion
4.231,-1064453,92,39,2774.4,4400,Li-ion
4.244,-971070,92,39,2774.4,4400,Li-ion
4.244,-704041,92,39,2774.4,4400,Li-ion
4.231,-1179505,92,39,2774.4,4400,Li-ion
4.231,-1201783,92,39,2774.4,4400,Li-ion
4.249,-952454,92,39,2774.4,4400,Li-ion
4.249,-863648,92,39,2774.4,4400,Li-ion
4.241,-1088257,92,39,2774.4,4400,Li-ion
4.241,-1014099,92,39,2774.4,4400,Li-ion
4.253,-1111145,92,39,2774.4,4400,Li-ion
4.253,-1309205,92,39,2774.4,4400,Li-ion
4.293,-1370240,92,39,2774.4,4400,Li-ion
4.267,-1139832,92,39,2774.4,4400,Li-ion
4.267,-1219178,92,39,2774.4,4400,Li-ion
4.265,-1221009,92,39.1,2774.4,4400,Li-ion
4.265,-1344605,92,39.1,2774.4,4400,Li-ion
4.29,-1098328,92,39.1,2774.4,4400,Li-ion
4.293,-1325074,92,39.1,2774.4,4400,Li-ion
4.293,-1305237,92,39.1,2774.4,4400,Li-ion
4.267,-1291199,92,39.1,2774.4,4400,Li-ion
4.267,-1292420,92,39.1,2774.4,4400,Li-ion
4.292,-1039429,93,39.1,2809.08,4400,Li-ion
4.292,-1112671,93,39.1,2809.08,4400,Li-ion
4.284,-1159058,93,39.1,2809.08,4400,Li-ion
4.292,-1292725,93,39.1,2809.08,4400,Li-ion
4.293,-1280213,93,39,2809.08,4400,Li-ion
4.278,-1255188,93,39.1,2809.08,4400,Li-ion
4.278,-1275940,93,39.1,2809.08,4400,Li-ion
4.281,-1271668,93,39.1,2809.08,4400,Li-ion
4.293,-1268921,93,39.1,2809.08,4400,Li-ion
4.293,-1253052,93,38.9,2809.08,4400,Li-ion
4.288,-1243592,93,39,2809.08,4400,Li-ion
4.262,-1242371,93,39,2809.08,4400,Li-ion
4.294,-1247864,93,39,2843.76,4400,Li-ion
4.293,-1188965,93,39,2843.76,4400,Li-ion
4.292,-1224671,93,39,2843.76,4400,Li-ion
4.293,-1234742,93,38.9,2843.76,4400,Li-ion
4.294,-1221619,93,38.9,2843.76,4400,Li-ion
4.293,-1203919,93,38.9,2843.76,4400,Li-ion
4.294,-1199341,93,38.9,2843.76,4400,Li-ion
4.294,-1195374,93,39,2843.76,4400,Li-ion
4.294,-1187134,94,38.8,2843.76,4400,Li-ion
4.294,-1180115,94,38.8,2843.76,4400,Li-ion
4.294,-1179200,94,38.8,2843.76,4400,Li-ion
4.294,-1178284,94,38.8,2843.76,4400,Li-ion
4.294,-1166077,94,38.9,2843.76,4400,Li-ion
4.294,-1145325,94,38.8,2843.76,4400,Li-ion
4.294,-1143494,94,38.7,2878.44,4400,Li-ion
4.294,-1132813,94,38.8,2878.44,4400,Li-ion
4.295,-1127625,94,38.8,2878.44,4400,Li-ion
4.295,-1110230,94,38.7,2878.44,4400,Li-ion
4.294,-1101075,94,38.7,2878.44,4400,Li-ion
4.295,-1094055,94,38.6,2878.44,4400,Li-ion
4.294,-1090393,95,38.6,2878.44,4400,Li-ion
4.295,-1079407,95,38.6,2878.44,4400,Li-ion
4.294,-1070557,95,38.5,2878.44,4400,Li-ion
4.294,-1060791,95,38.5,2878.44,4400,Li-ion
4.294,-1050720,95,38.4,2878.44,4400,Li-ion
4.293,-1047364,95,38.4,2913.12,4400,Li-ion
4.295,-1042786,95,38.3,2913.12,4400,Li-ion
4.295,-1035767,95,38.3,2913.12,4400,Li-ion
4.294,-1036988,95,38.2,2913.12,4400,Li-ion
4.294,-1031494,95,38.2,2913.12,4400,Li-ion
4.293,-1025086,95,38.2,2913.12,4400,Li-ion
4.293,-1029053,95,38.2,2913.12,4400,Li-ion
4.294,-1023255,95,38.2,2913.12,4400,Li-ion
4.293,-1020203,95,38.2,2913.12,4400,Li-ion
4.294,-1014710,95,38.2,2913.12,4400,Li-ion
4.294,-1007996,95,38.2,2913.12,4400,Li-ion
4.295,-1001892,96,38.1,2913.12,4400,Li-ion
4.294,-1006470,96,38.2,2913.12,4400,Li-ion
4.294,-998535,96,38.2,2913.12,4400,Li-ion
4.295,-986939,96,38,2913.12,4400,Li-ion
4.203,-408325,96,38.1,2913.12,4400,Li-ion
4.294,-992432,96,38.3,2913.12,4400,Li-ion
4.292,-983887,96,38.3,2913.12,4400,Li-ion
4.293,-960999,96,38.1,2947.8,4400,Li-ion
4.294,-951233,96,38,2947.8,4400,Li-ion
4.293,-952759,96,37.8,2947.8,4400,Li-ion
4.293,-948487,96,37.8,2947.8,4400,Li-ion
4.294,-927735,96,37.7,2947.8,4400,Li-ion
4.294,-928040,96,37.7,2947.8,4400,Li-ion
4.294,-924378,97,37.5,2947.8,4400,Li-ion
4.294,-913391,97,37.5,2947.8,4400,Li-ion
4.294,-908508,97,37.5,2947.8,4400,Li-ion
4.294,-910645,97,37.5,2947.8,4400,Li-ion
4.294,-904541,97,37.5,2947.8,4400,Li-ion
4.294,-900269,97,37.5,2947.8,4400,Li-ion
4.293,-893860,97,37.4,2947.8,4400,Li-ion
4.294,-882568,97,37.3,2947.8,4400,Li-ion
4.294,-880127,97,37.4,2982.48,4400,Li-ion
4.294,-872803,97,37.4,2982.48,4400,Li-ion
4.294,-867920,97,37.3,2982.48,4400,Li-ion
4.294,-871887,97,37.3,2982.48,4400,Li-ion
4.294,-860596,97,37.3,2982.48,4400,Li-ion
4.293,-859375,97,37.4,2982.48,4400,Li-ion
4.294,-849915,97,37.5,2982.48,4400,Li-ion
4.294,-844421,97,37.4,2982.48,4400,Li-ion
4.294,-833740,97,37.4,2982.48,4400,Li-ion
4.294,-830994,97,37.5,2982.48,4400,Li-ion
4.294,-830689,97,37.5,2982.48,4400,Li-ion
4.294,-820923,98,37.5,3017.16,4400,Li-ion
4.294,-814819,98,37.4,3017.16,4400,Li-ion
4.294,-815125,98,37.4,3017.16,4400,Li-ion
4.294,-814209,98,37.4,3017.16,4400,Li-ion
4.294,-810547,98,37.5,3017.16,4400,Li-ion
4.294,-795899,98,37.4,3017.16,4400,Li-ion
4.294,-795593,98,37.5,3017.16,4400,Li-ion
4.294,-782776,98,37.4,3017.16,4400,Li-ion
4.294,-779724,98,37.4,3017.16,4400,Li-ion
4.294,-774231,98,37.4,3017.16,4400,Li-ion
4.295,-768433,98,37.4,3017.16,4400,Li-ion
4.294,-762940,98,37.4,3017.16,4400,Li-ion
4.294,-759583,98,37.4,3017.16,4400,Li-ion
4.294,-756531,98,37.3,3017.16,4400,Li-ion
4.294,-750122,98,37.4,3017.16,4400,Li-ion
4.294,-739441,99,37.3,3051.84,4400,Li-ion
4.294,-733337,99,37.3,3051.84,4400,Li-ion
4.294,-732117,99,37.3,3051.84,4400,Li-ion
4.294,-729065,99,37.3,3051.84,4400,Li-ion
4.295,-721741,99,37.3,3051.84,4400,Li-ion
4.294,-716248,99,37.3,3051.84,4400,Li-ion
4.295,-716858,99,37.3,3051.84,4400,Li-ion
4.294,-722046,99,37.3,3051.84,4400,Li-ion
4.236,-721436,99,37.4,3051.84,4400,Li-ion
4.294,-718079,99,37.4,3051.84,4400,Li-ion
4.294,-715942,99,37.4,3051.84,4400,Li-ion
4.291,-723267,99,37.5,3051.84,4400,Li-ion
4.293,-711060,99,37.4,3051.84,4400,Li-ion
4.294,-703430,99,37.5,3051.84,4400,Li-ion
4.294,-696411,99,37.5,3051.84,4400,Li-ion
4.294,-694275,99,37.5,3086.52,4400,Li-ion
4.294,-693359,99,37.3,3086.52,4400,Li-ion
4.294,-688782,99,37.3,3086.52,4400,Li-ion
4.295,-683289,99,37.3,3086.52,4400,Li-ion
4.294,-675964,99,37.3,3086.52,4400,Li-ion
4.295,-675354,99,37.3,3086.52,4400,Li-ion
4.295,-669556,99,37.2,3086.52,4400,Li-ion
4.293,-671082,99,37.3,3086.52,4400,Li-ion
4.293,-666504,99,37.3,3086.52,4400,Li-ion
4.294,-659180,99,37.4,3086.52,4400,Li-ion
4.294,-658264,99,37.2,3086.52,4400,Li-ion
4.295,-651245,99,37.3,3086.52,4400,Li-ion
4.294,-647278,99,37.3,3086.52,4400,Li-ion
4.293,-642395,99,37.1,3086.52,4400,Li-ion
4.294,-639038,99,37.2,3086.52,4400,Li-ion
4.294,-627441,99,37.2,3086.52,4400,Li-ion
4.294,-627136,99,37.1,3121.2,4400,Li-ion
4.294,-625000,99,37.3,3121.2,4400,Li-ion
4.294,-623779,99,37.3,3121.2,4400,Li-ion
4.295,-624084,99,37.1,3121.2,4400,Li-ion
4.295,-617676,99,37.1,3121.2,4400,Li-ion
4.294,-617371,99,37.1,3121.2,4400,Li-ion
4.294,-615539,99,37.1,3121.2,4400,Li-ion
4.294,-617371,99,37.1,3121.2,4400,Li-ion
4.294,-614014,99,37.1,3121.2,4400,Li-ion
4.294,-607910,100,37.1,3121.2,4400,Li-ion
4.294,-609131,100,37.1,3121.2,4400,Li-ion
4.294,399170,100,37.1,3121.2,4400,Li-ion