File: dataset/samsung_a70-data.csv
timestamp,voltage(V),current(mA),power(W),battery_percent,battery_temperature(Celsius),remaining_battery_charge(mAh),battery_capacity(mAh),battery_technology
2023-04-14 17:12:33.937,3.733,2314,8.63816,1,36.9,0.0,4400,Li-ion
2023-04-14 17:12:41.519,3.618,808,2.923344,1,36.6,0.0,4400,Li-ion
2023-04-14 17:12:49.223,3.928,3355,13.17844,1,37.9,0.0,4400,Li-ion
2023-04-14 17:12:56.598,3.807,1279,4.869153,1,37.3,0.0,4400,Li-ion
2023-04-14 17:13:03.961,3.823,1933,7.389859,1,36.8,0.0,4400,Li-ion
2023-04-14 17:13:11.355,3.853,1961,7.55573,2,36.7,0.0,4400,Li-ion
2023-04-14 17:13:18.719,3.844,1946,7.48042,2,36.6,0.0,4400,Li-ion
2023-04-14 17:13:26.139,3.843,1902,7.309386,2,36.6,0.0,4400,Li-ion
2023-04-14 17:13:33.544,3.86,1632,6.29952,2,36.5,0.0,4400,Li-ion
2023-04-14 17:13:40.978,4.098,4032,16.5231,2,37.6,0.0,4400,Li-ion
2023-04-14 17:13:50.409,4.11,4035,16.58385,2,37.7,0.0,4400,Li-ion
2023-04-14 17:14:01.606,4.137,4026,16.6556,2,37.8,0.0,4400,Li-ion
2023-04-14 17:14:17.549,3.946,1969,7.76967,3,37.0,0.0,4400,Li-ion
2023-04-14 17:14:24.883,3.931,1953,7.67724,3,36.6,0.0,4400,Li-ion
2023-04-14 17:14:32.295,3.908,1918,7.495544,3,36.5,0.0,4400,Li-ion
2023-04-14 17:14:39.745,3.933,1810,7.11873,3,36.5,0.0,4400,Li-ion
2023-04-14 17:14:47.084,3.874,1508,5.841992,3,36.4,0.0,4400,Li-ion
2023-04-14 17:14:54.417,3.903,1723,6.724869,3,36.4,0.0,4400,Li-ion
2023-04-14 17:15:01.820,4.14,4035,16.7049,3,37.5,0.0,4400,Li-ion
2023-04-14 17:15:10.650,4.152,4035,16.7533,3,37.6,0.0,4400,Li-ion
2023-04-14 17:15:18.270,3.959,2015,7.97739,4,36.7,0.0,4400,Li-ion
2023-04-14 17:15:25.630,3.919,1974,7.736106,4,36.5,0.0,4400,Li-ion
2023-04-14 17:15:33.018,3.934,1917,7.54148,4,36.5,0.0,4400,Li-ion
2023-04-14 17:15:40.369,3.942,1944,7.663248,4,36.4,0.0,4400,Li-ion
2023-04-14 17:15:47.791,3.932,1957,7.694924,4,36.4,0.0,4400,Li-ion
2023-04-14 17:15:55.166,4.068,3941,16.032,4,37.2,0.0,4400,Li-ion
2023-04-14 17:16:10.703,4.166,4034,16.8056,4,37.8,0.0,4400,Li-ion
2023-04-14 17:16:18.909,4.172,4027,16.8006,5,37.8,34.68,4400,Li-ion
2023-04-14 17:16:34.187,4.175,4031,16.8294,5,37.9,34.68,4400,Li-ion
2023-04-14 17:16:42.377,4.178,4030,16.83734,5,37.9,34.68,4400,Li-ion
2023-04-14 17:16:49.677,3.982,2078,8.2746,5,36.8,34.68,4400,Li-ion
2023-04-14 17:16:57.089,3.962,1875,7.42875,5,36.7,34.68,4400,Li-ion
2023-04-14 17:17:04.431,3.944,1854,7.312176,5,36.7,34.68,4400,Li-ion
2023-04-14 17:17:11.764,3.952,1803,7.125456,5,36.6,34.68,4400,Li-ion
2023-04-14 17:17:19.096,3.942,1769,6.973398,6,36.6,69.36,4400,Li-ion
2023-04-14 17:17:26.397,4.151,4003,16.6165,6,37.7,69.36,4400,Li-ion
2023-04-14 17:17:36.852,4.166,4040,16.8306,6,37.9,69.36,4400,Li-ion
2023-04-14 17:17:50.572,3.967,2021,8.017307,6,37.2,69.36,4400,Li-ion
2023-04-14 17:17:57.936,3.968,1978,7.848704,6,36.9,69.36,4400,Li-ion
2023-04-14 17:18:05.386,3.949,1970,7.77953,6,36.8,69.36,4400,Li-ion
2023-04-14 17:18:12.808,3.958,2030,8.03474,6,36.8,69.36,4400,Li-ion
2023-04-14 17:18:20.314,3.957,1785,7.06324,7,36.7,104.04,4400,Li-ion
2023-04-14 17:18:27.654,3.956,1758,6.954648,7,36.7,104.04,4400,Li-ion
2023-04-14 17:18:36.381,4.167,4042,16.843,7,37.9,104.04,4400,Li-ion
2023-04-14 17:18:43.793,3.935,2042,8.03527,8,36.9,104.04,4400,Li-ion
2023-04-14 17:18:51.401,3.893,1265,4.92464,8,36.8,104.04,4400,Li-ion
2023-04-14 17:18:58.890,3.962,1981,7.848722,8,36.8,104.04,4400,Li-ion
2023-04-14 17:19:06.227,3.955,1803,7.130865,8,36.8,104.04,4400,Li-ion
2023-04-14 17:19:13.572,3.955,1663,6.577165,8,36.8,104.04,4400,Li-ion
2023-04-14 17:19:20.917,3.957,1948,7.70824,8,36.7,104.04,4400,Li-ion
2023-04-14 17:19:28.270,3.949,1743,6.883107,9,36.7,138.72,4400,Li-ion
2023-04-14 17:19:35.599,4.111,4013,16.4974,9,37.5,138.72,4400,Li-ion
2023-04-14 17:19:45.074,3.981,2033,8.093373,9,37.0,138.72,4400,Li-ion
2023-04-14 17:19:52.396,3.975,1940,7.7115,9,36.9,138.72,4400,Li-ion
2023-04-14 17:19:59.832,3.964,1918,7.60295,9,36.8,138.72,4400,Li-ion
2023-04-14 17:20:07.191,3.971,1997,7.930087,9,36.8,138.72,4400,Li-ion
2023-04-14 17:20:14.535,3.96,1898,7.51608,9,36.8,138.72,4400,Li-ion
2023-04-14 17:20:21.909,3.959,1645,6.512555,9,36.7,138.72,4400,Li-ion
2023-04-14 17:20:29.206,3.957,1887,7.46686,10,36.7,208.08,4400,Li-ion
2023-04-14 17:20:36.557,4.177,4040,16.8751,10,37.9,208.08,4400,Li-ion
2023-04-14 17:20:48.910,4.193,4034,16.9146,11,38.1,208.08,4400,Li-ion
2023-04-14 17:21:01.663,3.94,1668,6.57192,11,37.1,208.08,4400,Li-ion
2023-04-14 17:21:09.042,3.986,1720,6.85592,11,37.0,208.08,4400,Li-ion
2023-04-14 17:21:16.392,3.986,1852,7.38207,11,36.9,208.08,4400,Li-ion
2023-04-14 17:21:23.770,3.974,1764,7.010136,11,36.9,208.08,4400,Li-ion
2023-04-14 17:21:31.085,3.974,1795,7.13333,12,36.9,242.76,4400,Li-ion
2023-04-14 17:21:38.397,4.173,3974,16.5835,12,38.0,242.76,4400,Li-ion
2023-04-14 17:21:48.676,4.193,4030,16.89779,12,38.1,242.76,4400,Li-ion
2023-04-14 17:21:56.154,4.008,2059,8.25247,12,37.3,242.76,4400,Li-ion
2023-04-14 17:22:03.517,3.988,1888,7.52934,12,37.0,242.76,4400,Li-ion
2023-04-14 17:22:10.882,3.984,1987,7.916208,12,37.0,242.76,4400,Li-ion
2023-04-14 17:22:18.272,3.972,1905,7.56666,12,36.9,242.76,4400,Li-ion
2023-04-14 17:22:26.145,3.968,1755,6.96384,12,36.9,242.76,4400,Li-ion
2023-04-14 17:22:33.472,3.977,1715,6.820555,13,36.9,277.44,4400,Li-ion
2023-04-14 17:22:40.845,3.973,1864,7.405672,13,36.9,277.44,4400,Li-ion
2023-04-14 17:22:48.197,4.193,4033,16.9104,13,38.0,277.44,4400,Li-ion
2023-04-14 17:22:56.009,4.002,2055,8.22411,14,37.1,277.44,4400,Li-ion
2023-04-14 17:23:03.316,3.963,1759,6.970917,14,37.0,277.44,4400,Li-ion
2023-04-14 17:23:10.768,3.984,1933,7.701072,14,37.0,277.44,4400,Li-ion
2023-04-14 17:23:18.094,3.988,1830,7.29804,14,36.9,277.44,4400,Li-ion
2023-04-14 17:23:25.492,3.985,1939,7.726915,14,36.9,277.44,4400,Li-ion
2023-04-14 17:23:32.817,4.187,4005,16.7689,15,38.1,312.12,4400,Li-ion
2023-04-14 17:23:40.313,4.205,2048,8.61184,15,37.5,312.12,4400,Li-ion
2023-04-14 17:23:47.940,3.989,2051,8.18144,15,37.0,312.12,4400,Li-ion
2023-04-14 17:23:55.324,3.999,1970,7.87803,15,37.0,312.12,4400,Li-ion
2023-04-14 17:24:02.837,3.994,1951,7.79229,15,37.0,312.12,4400,Li-ion
2023-04-14 17:24:10.184,3.996,1972,7.880112,15,36.9,312.12,4400,Li-ion
2023-04-14 17:24:17.503,3.988,1908,7.6091,15,36.9,312.12,4400,Li-ion
2023-04-14 17:24:24.871,3.989,1919,7.654891,15,36.9,312.12,4400,Li-ion
2023-04-14 17:24:32.196,4.2,4026,16.9092,15,38.1,312.12,4400,Li-ion
2023-04-14 17:24:44.961,4.221,4035,17.0317,16,38.3,346.8,4400,Li-ion
2023-04-14 17:24:57.410,4.03,2085,8.40255,16,37.3,346.8,4400,Li-ion
2023-04-14 17:25:04.787,3.984,1858,7.402272,17,37.1,346.8,4400,Li-ion
2023-04-14 17:25:12.287,4.019,2032,8.166608,17,37.1,346.8,4400,Li-ion
2023-04-14 17:25:19.653,4.003,1944,7.781832,17,37.1,346.8,4400,Li-ion
2023-04-14 17:25:27.007,4.001,1651,6.60565,17,37.1,346.8,4400,Li-ion
2023-04-14 17:25:34.330,3.999,1669,6.67433,17,37.0,346.8,4400,Li-ion
2023-04-14 17:25:41.724,3.997,1657,6.623029,18,37.0,416.16,4400,Li-ion
2023-04-14 17:25:49.003,3.99,1405,5.60595,18,37.0,416.16,4400,Li-ion
2023-04-14 17:25:56.300,3.979,1697,6.75236,18,37.0,416.16,4400,Li-ion
2023-04-14 17:26:03.689,3.989,1601,6.38639,18,37.0,416.16,4400,Li-ion
2023-04-14 17:26:11.071,4.213,4025,16.9573,18,38.2,416.16,4400,Li-ion
2023-04-14 17:26:31.458,4.033,1991,8.0297,18,37.7,416.16,4400,Li-ion
2023-04-14 17:26:38.861,4.035,2059,8.30807,18,37.3,416.16,4400,Li-ion
2023-04-14 17:26:46.159,4.009,1855,7.436695,19,37.2,450.84,4400,Li-ion
2023-04-14 17:26:53.479,4.02,1961,7.88322,19,37.1,450.84,4400,Li-ion
2023-04-14 17:27:00.774,4.015,1848,7.41972,19,37.1,450.84,4400,Li-ion
2023-04-14 17:27:08.120,4.009,1880,7.53692,20,37.1,450.84,4400,Li-ion
2023-04-14 17:27:15.462,3.995,1893,7.562535,20,37.1,450.84,4400,Li-ion
2023-04-14 17:27:22.808,4.006,1713,6.86228,20,37.1,450.84,4400,Li-ion
2023-04-14 17:27:30.155,4.206,3952,16.6221,20,38.2,450.84,4400,Li-ion
2023-04-14 17:27:45.265,4.229,3935,16.6411,21,38.3,485.52,4400,Li-ion
2023-04-14 17:28:03.082,4.237,3880,16.43956,21,38.4,485.52,4400,Li-ion
2023-04-14 17:28:39.384,4.236,3833,16.2366,21,38.5,485.52,4400,Li-ion
2023-04-14 17:28:49.993,4.234,3778,15.9961,22,38.5,554.88,4400,Li-ion
2023-04-14 17:29:08.691,4.235,3737,15.8262,22,38.6,554.88,4400,Li-ion
2023-04-14 17:29:24.520,4.23,3680,15.5664,23,38.7,554.88,4400,Li-ion
2023-04-14 17:29:31.828,4.059,1931,7.83793,23,38.0,554.88,4400,Li-ion
2023-04-14 17:29:39.264,4.054,1823,7.390442,23,37.7,554.88,4400,Li-ion
2023-04-14 17:29:46.609,4.045,1816,7.34572,23,37.6,554.88,4400,Li-ion
2023-04-14 17:29:53.971,4.042,1935,7.82127,24,37.6,624.24,4400,Li-ion
2023-04-14 17:30:01.397,4.036,1871,7.55136,24,37.6,624.24,4400,Li-ion
2023-04-14 17:30:08.740,4.032,1809,7.293888,24,37.5,624.24,4400,Li-ion
2023-04-14 17:30:16.108,4.011,1844,7.396284,25,37.5,624.24,4400,Li-ion
2023-04-14 17:30:23.456,4.018,1765,7.09177,25,37.5,624.24,4400,Li-ion
2023-04-14 17:30:30.810,3.951,964,3.808764,25,37.5,624.24,4400,Li-ion
2023-04-14 17:30:38.364,3.927,1058,4.154766,25,37.5,624.24,4400,Li-ion
2023-04-14 17:30:45.680,3.941,1100,4.3351,25,37.5,624.24,4400,Li-ion
2023-04-14 17:30:53.247,3.921,990,3.88179,26,37.5,624.24,4400,Li-ion
2023-04-14 17:31:00.928,3.907,798,3.117786,26,37.5,624.24,4400,Li-ion
2023-04-14 17:31:08.664,3.916,1046,4.096136,26,37.5,624.24,4400,Li-ion
2023-04-14 17:31:16.027,3.923,986,3.868078,26,37.5,624.24,4400,Li-ion
2023-04-14 17:31:23.342,3.934,1123,4.41788,26,37.5,624.24,4400,Li-ion
2023-04-14 17:31:30.751,3.922,1098,4.306356,26,37.5,624.24,4400,Li-ion
2023-04-14 17:31:38.257,3.907,1027,4.012489,26,37.4,624.24,4400,Li-ion
2023-04-14 17:31:45.660,3.96,1469,5.81724,26,37.5,624.24,4400,Li-ion
2023-04-14 17:31:53.064,3.979,986,3.923294,26,37.4,624.24,4400,Li-ion
2023-04-14 17:32:00.439,3.979,1557,6.195303,26,37.4,658.92,4400,Li-ion
2023-04-14 17:32:21.999,3.966,1339,5.310474,26,37.5,658.92,4400,Li-ion
2023-04-14 17:32:29.389,4.199,3629,15.2382,26,38.6,658.92,4400,Li-ion
2023-04-14 17:32:36.768,4.017,1941,7.797,26,37.6,658.92,4400,Li-ion
2023-04-14 17:32:44.042,4.025,1742,7.01155,26,37.6,658.92,4400,Li-ion
2023-04-14 17:32:51.400,4.04,1835,7.4134,26,37.5,658.92,4400,Li-ion
2023-04-14 17:32:58.742,4.03,1660,6.6898,27,37.5,693.6,4400,Li-ion
2023-04-14 17:33:06.058,4.034,1574,6.349516,27,37.5,693.6,4400,Li-ion
2023-04-14 17:33:13.397,4.027,1608,6.47542,27,37.5,693.6,4400,Li-ion
2023-04-14 17:33:20.698,4.015,1720,6.9058,27,37.5,693.6,4400,Li-ion
2023-04-14 17:33:28.027,4.022,1837,7.388414,27,37.5,693.6,4400,Li-ion
2023-04-14 17:33:35.422,3.993,1542,6.157206,27,37.5,693.6,4400,Li-ion
2023-04-14 17:33:42.745,4.021,1564,6.288844,27,37.5,693.6,4400,Li-ion
2023-04-14 17:33:51.764,4.209,3634,15.2955,27,38.6,693.6,4400,Li-ion
2023-04-14 17:34:02.051,4.219,3630,15.31497,28,38.7,728.28,4400,Li-ion
2023-04-14 17:34:10.290,4.05,1824,7.3872,28,37.9,728.28,4400,Li-ion
2023-04-14 17:34:17.746,4.061,2065,8.38596,28,37.7,728.28,4400,Li-ion
2023-04-14 17:34:25.073,4.045,1969,7.96461,28,37.7,728.28,4400,Li-ion
2023-04-14 17:34:32.412,4.046,1976,7.9949,28,37.7,728.28,4400,Li-ion
2023-04-14 17:34:39.718,4.038,1604,6.47695,28,37.7,728.28,4400,Li-ion
2023-04-14 17:34:47.063,4.039,1904,7.69026,28,37.6,728.28,4400,Li-ion
2023-04-14 17:34:54.395,4.021,1789,7.19357,28,37.6,728.28,4400,Li-ion
2023-04-14 17:35:01.776,4.018,1846,7.417228,28,37.6,728.28,4400,Li-ion
2023-04-14 17:35:09.130,4.026,1772,7.134072,29,37.6,762.96,4400,Li-ion
2023-04-14 17:35:16.498,4.023,1814,7.29772,29,37.6,762.96,4400,Li-ion
2023-04-14 17:35:23.911,4.204,3601,15.1386,29,38.7,762.96,4400,Li-ion
2023-04-14 17:35:31.172,4.043,1739,7.03078,29,38.0,762.96,4400,Li-ion
2023-04-14 17:35:38.566,4.044,2000,8.088,29,37.8,762.96,4400,Li-ion
2023-04-14 17:35:45.980,4.049,1974,7.992726,29,37.7,762.96,4400,Li-ion
2023-04-14 17:35:53.337,4.044,1932,7.81301,29,37.7,762.96,4400,Li-ion
2023-04-14 17:36:00.758,4.044,1868,7.554192,29,37.7,762.96,4400,Li-ion
2023-04-14 17:36:08.130,4.018,1895,7.61411,30,37.7,797.64,4400,Li-ion
2023-04-14 17:36:15.558,4.037,1839,7.424043,30,37.7,797.64,4400,Li-ion
2023-04-14 17:36:22.908,4.021,1841,7.40266,30,37.7,797.64,4400,Li-ion
2023-04-14 17:36:30.338,4.022,1725,6.93795,30,37.6,797.64,4400,Li-ion
2023-04-14 17:36:37.903,4.023,1729,6.955767,30,37.7,797.64,4400,Li-ion
2023-04-14 17:36:45.241,4.207,3603,15.1578,30,38.7,797.64,4400,Li-ion
2023-04-14 17:36:59.487,4.228,3631,15.3519,30,38.7,797.64,4400,Li-ion
2023-04-14 17:37:07.058,4.228,3629,15.3434,30,38.7,797.64,4400,Li-ion
2023-04-14 17:37:14.439,4.074,2052,8.359848,31,38.0,832.32,4400,Li-ion
2023-04-14 17:37:21.822,4.06,1962,7.96572,31,37.9,832.32,4400,Li-ion
2023-04-14 17:37:29.156,4.049,1932,7.822668,31,37.9,832.32,4400,Li-ion
2023-04-14 17:37:36.527,4.042,1694,6.847148,31,37.9,832.32,4400,Li-ion
2023-04-14 17:37:43.881,3.996,1779,7.108884,31,37.9,832.32,4400,Li-ion
2023-04-14 17:37:51.193,4.022,1655,6.65641,31,37.9,832.32,4400,Li-ion
2023-04-14 17:37:58.536,4.035,1695,6.83933,31,37.9,832.32,4400,Li-ion
2023-04-14 17:38:05.847,4.022,1781,7.163182,31,37.8,832.32,4400,Li-ion
2023-04-14 17:38:13.249,4.033,1730,6.97709,32,37.9,867.0,4400,Li-ion
2023-04-14 17:38:20.660,4.021,1708,6.867868,32,37.8,867.0,4400,Li-ion
2023-04-14 17:38:28.056,4.026,1710,6.88446,32,37.8,867.0,4400,Li-ion
2023-04-14 17:38:35.439,4.024,1679,6.756296,32,37.8,867.0,4400,Li-ion
2023-04-14 17:38:42.843,4.214,3577,15.0735,32,38.8,867.0,4400,Li-ion
2023-04-14 17:38:55.524,4.225,3572,15.0917,32,38.8,867.0,4400,Li-ion
2023-04-14 17:39:07.387,4.076,2009,8.18868,32,38.1,867.0,4400,Li-ion
2023-04-14 17:39:14.997,4.062,1988,8.07526,33,38.0,901.68,4400,Li-ion
2023-04-14 17:39:22.457,4.061,2005,8.1423,33,37.9,901.68,4400,Li-ion
2023-04-14 17:39:29.952,4.054,1829,7.414766,33,37.9,901.68,4400,Li-ion
2023-04-14 17:39:37.316,4.052,1949,7.89735,33,37.9,901.68,4400,Li-ion
2023-04-14 17:39:44.719,4.045,1838,7.43471,33,37.9,901.68,4400,Li-ion
2023-04-14 17:39:52.073,4.026,1712,6.89251,33,37.9,901.68,4400,Li-ion
2023-04-14 17:39:59.480,4.043,1797,7.265271,33,37.9,901.68,4400,Li-ion
2023-04-14 17:40:06.919,4.038,1769,7.143222,33,37.8,901.68,4400,Li-ion
2023-04-14 17:40:14.269,4.043,1781,7.200583,33,37.8,901.68,4400,Li-ion
2023-04-14 17:40:21.656,4.215,3524,14.85366,34,38.8,936.36,4400,Li-ion
2023-04-14 17:40:29.126,4.22,3529,14.89238,34,38.8,936.36,4400,Li-ion
2023-04-14 17:40:36.523,4.22,3526,14.87972,34,38.8,936.36,4400,Li-ion
2023-04-14 17:40:48.763,4.235,3527,14.9368,34,38.9,936.36,4400,Li-ion
2023-04-14 17:41:12.535,4.235,3475,14.7166,34,39.0,936.36,4400,Li-ion
2023-04-14 17:41:30.996,4.231,3426,14.4954,35,39.0,1005.72,4400,Li-ion
2023-04-14 17:41:48.538,4.228,3379,14.2864,36,39.0,1005.72,4400,Li-ion
2023-04-14 17:42:03.595,4.223,3323,14.033,36,39.0,1005.72,4400,Li-ion
2023-04-14 17:42:22.222,4.219,3279,13.8341,37,39.0,1075.08,4400,Li-ion
2023-04-14 17:42:36.353,4.22,3271,13.80362,37,39.1,1075.08,4400,Li-ion
2023-04-14 17:42:50.479,4.223,3282,13.8599,38,39.1,1075.08,4400,Li-ion
2023-04-14 17:43:16.147,4.218,3219,13.5777,38,39.2,1075.08,4400,Li-ion
2023-04-14 17:43:33.395,4.219,3223,13.5978,39,39.2,1109.76,4400,Li-ion
2023-04-14 17:43:54.400,4.22,3228,13.62216,39,39.3,1109.76,4400,Li-ion
2023-04-14 17:44:02.157,4.22,3211,13.55042,39,39.2,1109.76,4400,Li-ion
2023-04-14 17:44:09.476,4.031,1262,5.087122,39,38.7,1109.76,4400,Li-ion
2023-04-14 17:44:17.288,4.007,1146,4.59202,39,38.6,1109.76,4400,Li-ion
2023-04-14 17:44:24.982,3.997,1047,4.18486,39,38.5,1109.76,4400,Li-ion
2023-04-14 17:44:32.374,3.998,1145,4.57771,40,38.5,1179.12,4400,Li-ion
2023-04-14 17:44:39.754,3.979,998,3.971042,40,38.5,1179.12,4400,Li-ion
2023-04-14 17:44:47.113,3.994,1091,4.357454,40,38.5,1179.12,4400,Li-ion
2023-04-14 17:44:54.374,4.025,1507,6.065675,41,38.5,1179.12,4400,Li-ion
2023-04-14 17:45:01.681,4.022,1504,6.049088,41,38.4,1179.12,4400,Li-ion
2023-04-14 17:45:08.952,4.014,1417,5.687838,41,38.4,1179.12,4400,Li-ion
2023-04-14 17:45:16.270,4.026,1580,6.36108,41,38.4,1179.12,4400,Li-ion
2023-04-14 17:45:23.595,4.005,1464,5.86332,41,38.4,1179.12,4400,Li-ion
2023-04-14 17:45:31.085,4.019,1299,5.220681,42,38.4,1179.12,4400,Li-ion
2023-04-14 17:45:38.400,3.973,1429,5.677417,42,38.4,1179.12,4400,Li-ion
2023-04-14 17:45:45.690,3.98,1039,4.13522,42,38.4,1179.12,4400,Li-ion
2023-04-14 17:45:52.990,4.009,1373,5.50436,42,38.4,1179.12,4400,Li-ion
2023-04-14 17:46:00.330,3.992,1317,5.257464,42,38.4,1179.12,4400,Li-ion
2023-04-14 17:46:07.867,3.99,1191,4.75209,42,38.4,1179.12,4400,Li-ion
2023-04-14 17:46:15.147,4.003,1262,5.051786,42,38.4,1179.12,4400,Li-ion
2023-04-14 17:46:22.405,4.003,1325,5.303975,42,38.4,1179.12,4400,Li-ion
2023-04-14 17:46:29.682,3.995,1329,5.309355,42,38.4,1179.12,4400,Li-ion
2023-04-14 17:46:36.957,3.999,1036,4.142964,42,38.4,1213.8,4400,Li-ion
2023-04-14 17:46:44.269,3.965,1355,5.37257,42,38.4,1213.8,4400,Li-ion
2023-04-14 17:46:51.631,3.972,914,3.630408,42,38.4,1213.8,4400,Li-ion
2023-04-14 17:46:58.907,4.004,1330,5.32532,42,38.4,1213.8,4400,Li-ion
2023-04-14 17:47:06.720,4.013,1287,5.164731,42,38.4,1213.8,4400,Li-ion
2023-04-14 17:47:14.020,3.993,1298,5.182914,42,38.4,1213.8,4400,Li-ion
2023-04-14 17:47:21.601,3.975,1367,5.433825,42,38.4,1213.8,4400,Li-ion
2023-04-14 17:47:28.865,3.975,1350,5.36625,42,38.4,1213.8,4400,Li-ion
2023-04-14 17:47:36.540,3.975,644,2.5599,43,38.4,1213.8,4400,Li-ion
2023-04-14 17:47:44.052,3.955,758,2.99789,43,38.4,1213.8,4400,Li-ion
2023-04-14 17:47:51.390,3.954,1078,4.262412,43,38.4,1213.8,4400,Li-ion
2023-04-14 17:47:58.693,3.989,1240,4.94636,43,38.4,1213.8,4400,Li-ion
2023-04-14 17:48:05.925,3.99,1342,5.35458,43,38.4,1213.8,4400,Li-ion
2023-04-14 17:48:13.287,3.989,1342,5.353238,43,38.4,1213.8,4400,Li-ion
2023-04-14 17:48:20.539,4.004,1087,4.35235,43,38.4,1213.8,4400,Li-ion
2023-04-14 17:48:27.797,4.017,1300,5.2221,43,38.3,1213.8,4400,Li-ion
2023-04-14 17:48:35.043,3.975,1065,4.233375,43,38.3,1213.8,4400,Li-ion
2023-04-14 17:48:42.328,3.993,1277,5.099061,44,38.3,1248.48,4400,Li-ion
2023-04-14 17:48:49.598,3.998,939,3.754122,44,38.3,1248.48,4400,Li-ion
2023-04-14 17:48:56.896,3.998,1208,4.82958,44,38.3,1248.48,4400,Li-ion
2023-04-14 17:49:04.210,3.991,787,3.14092,44,38.3,1248.48,4400,Li-ion
2023-04-14 17:49:11.538,3.966,1086,4.307076,44,38.3,1248.48,4400,Li-ion
2023-04-14 17:49:18.784,3.97,1112,4.41464,44,38.3,1248.48,4400,Li-ion
2023-04-14 17:49:26.093,3.987,1365,5.442255,44,38.3,1248.48,4400,Li-ion
2023-04-14 17:49:33.331,4.008,1061,4.252488,44,38.3,1248.48,4400,Li-ion
2023-04-14 17:49:40.598,4.011,1241,4.97765,45,38.3,1283.16,4400,Li-ion
2023-04-14 17:49:47.852,4.01,1293,5.18493,45,38.3,1283.16,4400,Li-ion
2023-04-14 17:49:55.239,3.946,667,2.63198,45,38.3,1283.16,4400,Li-ion
2023-04-14 17:50:02.747,3.946,1205,4.75493,45,38.3,1283.16,4400,Li-ion
2023-04-14 17:50:10.032,3.891,566,2.202306,45,38.3,1283.16,4400,Li-ion
2023-04-14 17:50:17.333,3.963,956,3.788628,45,38.4,1283.16,4400,Li-ion
2023-04-14 17:50:24.720,3.964,1006,3.987784,45,38.4,1283.16,4400,Li-ion
2023-04-14 17:50:32.069,3.974,1056,4.196544,45,38.4,1283.16,4400,Li-ion
2023-04-14 17:50:39.482,3.974,1052,4.18065,45,38.4,1283.16,4400,Li-ion
2023-04-14 17:50:46.826,3.947,1070,4.22329,45,38.4,1283.16,4400,Li-ion
2023-04-14 17:50:54.212,4.04,1497,6.04788,45,38.7,1283.16,4400,Li-ion
2023-04-14 17:51:01.397,4.037,1614,6.51572,45,38.5,1283.16,4400,Li-ion
2023-04-14 17:51:08.713,4.073,1722,7.01371,45,38.5,1283.16,4400,Li-ion
2023-04-14 17:51:16.058,4.075,1663,6.77673,45,38.4,1283.16,4400,Li-ion
2023-04-14 17:51:23.371,4.07,1845,7.50915,45,38.4,1283.16,4400,Li-ion
2023-04-14 17:51:30.716,4.067,1510,6.14117,45,38.4,1283.16,4400,Li-ion
2023-04-14 17:51:38.034,3.825,759,2.903175,45,37.9,1283.16,4400,Li-ion
2023-04-14 17:51:45.357,3.977,973,3.869621,45,38.3,1283.16,4400,Li-ion
2023-04-14 17:51:52.710,3.983,980,3.90334,46,38.4,1317.84,4400,Li-ion
2023-04-14 17:51:59.988,3.972,975,3.8727,46,38.4,1317.84,4400,Li-ion
2023-04-14 17:52:07.296,3.978,959,3.814902,46,38.4,1317.84,4400,Li-ion
2023-04-14 17:52:14.656,4.204,3219,13.5327,46,39.1,1317.84,4400,Li-ion
2023-04-14 17:52:38.679,4.227,3221,13.6152,46,39.0,1317.84,4400,Li-ion
2023-04-14 17:52:49.124,3.98,915,3.6417,46,38.4,1317.84,4400,Li-ion
2023-04-14 17:52:56.331,4.121,2444,10.0717,47,39.3,1352.52,4400,Li-ion
2023-04-14 17:53:03.702,4.096,1918,7.856128,47,38.5,1352.52,4400,Li-ion
2023-04-14 17:53:10.993,4.079,1766,7.20351,47,38.3,1352.52,4400,Li-ion
2023-04-14 17:53:18.357,4.087,1845,7.54051,48,38.2,1352.52,4400,Li-ion
2023-04-14 17:53:25.691,4.09,1774,7.25566,48,38.2,1352.52,4400,Li-ion
2023-04-14 17:53:33.031,4.081,1807,7.374367,48,38.1,1352.52,4400,Li-ion
2023-04-14 17:53:40.359,4.078,1740,7.09572,48,38.1,1352.52,4400,Li-ion
2023-04-14 17:53:47.672,4.068,1787,7.26952,48,38.0,1352.52,4400,Li-ion
2023-04-14 17:53:55.138,4.071,1712,6.96955,49,38.0,1387.2,4400,Li-ion
2023-04-14 17:54:02.470,4.073,1637,6.6675,49,38.0,1387.2,4400,Li-ion
2023-04-14 17:54:09.772,4.071,1410,5.74011,49,38.0,1387.2,4400,Li-ion
2023-04-14 17:54:17.141,4.214,3204,13.5017,49,38.7,1387.2,4400,Li-ion
2023-04-14 17:54:28.634,4.229,3218,13.6089,49,38.7,1387.2,4400,Li-ion
2023-04-14 17:54:35.972,3.903,654,2.552562,49,38.3,1387.2,4400,Li-ion
2023-04-14 17:54:43.301,4.004,934,3.739736,49,38.1,1387.2,4400,Li-ion
2023-04-14 17:54:50.621,3.99,926,3.69474,49,38.0,1387.2,4400,Li-ion
2023-04-14 17:54:57.937,3.989,1006,4.012934,50,38.1,1421.88,4400,Li-ion
2023-04-14 17:55:05.279,3.969,1049,4.163481,50,38.1,1421.88,4400,Li-ion
2023-04-14 17:55:13.183,4.228,3227,13.6438,50,39.0,1421.88,4400,Li-ion
2023-04-14 17:55:23.468,4.235,3223,13.6494,50,38.9,1421.88,4400,Li-ion
2023-04-14 17:55:38.387,4.244,3219,13.6614,50,38.9,1421.88,4400,Li-ion
2023-04-14 17:56:04.210,4.252,3218,13.6829,51,39.1,1456.56,4400,Li-ion
2023-04-14 17:56:18.533,4.255,3220,13.7011,51,39.0,1456.56,4400,Li-ion
2023-04-14 17:56:30.871,4.257,3215,13.6863,52,39.1,1456.56,4400,Li-ion
2023-04-14 17:56:40.142,4.131,1858,7.675398,52,38.4,1456.56,4400,Li-ion
2023-04-14 17:56:47.454,4.123,1931,7.96151,52,38.4,1456.56,4400,Li-ion
2023-04-14 17:56:54.767,4.114,1870,7.69318,52,38.4,1456.56,4400,Li-ion
2023-04-14 17:57:02.064,4.113,1838,7.55969,53,38.4,1525.92,4400,Li-ion
2023-04-14 17:57:09.396,4.113,1726,7.09904,53,38.4,1525.92,4400,Li-ion
2023-04-14 17:57:16.714,4.086,1815,7.41609,53,38.4,1525.92,4400,Li-ion
2023-04-14 17:57:24.171,4.101,1699,6.967599,53,38.3,1525.92,4400,Li-ion
2023-04-14 17:57:31.502,4.092,1679,6.870468,53,38.3,1525.92,4400,Li-ion
2023-04-14 17:57:38.838,4.092,1708,6.98914,53,38.3,1525.92,4400,Li-ion
2023-04-14 17:57:48.316,4.25,3225,13.70625,53,39.0,1525.92,4400,Li-ion
2023-04-14 17:58:04.578,4.26,3223,13.72998,54,39.1,1560.6,4400,Li-ion
2023-04-14 17:58:15.497,4.263,3222,13.7354,54,39.1,1560.6,4400,Li-ion
2023-04-14 17:58:46.471,4.269,3221,13.7504,54,39.2,1560.6,4400,Li-ion
2023-04-14 17:59:05.088,4.273,3226,13.7847,55,39.2,1595.28,4400,Li-ion
2023-04-14 17:59:26.223,4.277,3222,13.7805,55,39.3,1595.28,4400,Li-ion
2023-04-14 17:59:42.312,4.275,3223,13.7783,56,39.4,1595.28,4400,Li-ion
2023-04-14 18:00:00.091,4.281,3218,13.7763,56,39.5,1595.28,4400,Li-ion
2023-04-14 18:00:07.663,4.123,1582,6.522586,57,39.0,1664.64,4400,Li-ion
2023-04-14 18:00:15.173,4.151,1969,8.173319,57,38.8,1664.64,4400,Li-ion
2023-04-14 18:00:22.541,4.144,1907,7.90261,57,38.7,1664.64,4400,Li-ion
2023-04-14 18:00:30.109,4.109,1405,5.773145,57,38.7,1664.64,4400,Li-ion
2023-04-14 18:00:37.422,4.132,1859,7.68139,58,38.7,1664.64,4400,Li-ion
2023-04-14 18:00:44.734,4.13,1849,7.63637,58,38.7,1664.64,4400,Li-ion
2023-04-14 18:00:52.151,4.123,1778,7.330694,58,38.7,1664.64,4400,Li-ion
2023-04-14 18:00:59.470,4.117,1709,7.035953,58,38.7,1664.64,4400,Li-ion
2023-04-14 18:01:06.775,4.122,1485,6.12117,58,38.7,1664.64,4400,Li-ion
2023-04-14 18:01:14.110,4.116,1562,6.429192,59,38.7,1699.32,4400,Li-ion
2023-04-14 18:01:21.473,4.116,1610,6.62676,59,38.7,1699.32,4400,Li-ion
2023-04-14 18:01:28.789,4.1,1560,6.396,59,38.7,1699.32,4400,Li-ion
2023-04-14 18:01:36.144,4.1,1540,6.314,59,38.7,1699.32,4400,Li-ion
2023-04-14 18:01:43.495,4.268,3227,13.7728,59,39.4,1699.32,4400,Li-ion
2023-04-14 18:01:50.827,4.272,3222,13.7644,59,39.4,1699.32,4400,Li-ion
2023-04-14 18:01:58.165,4.28,3226,13.80728,59,39.4,1699.32,4400,Li-ion
2023-04-14 18:02:05.604,4.284,3224,13.8116,59,39.5,1699.32,4400,Li-ion
2023-04-14 18:02:12.959,4.278,3125,13.36875,59,39.5,1699.32,4400,Li-ion
2023-04-14 18:02:20.303,4.278,3128,13.3816,60,39.5,1734.0,4400,Li-ion
2023-04-14 18:02:27.635,4.28,3121,13.3579,60,39.4,1734.0,4400,Li-ion
2023-04-14 18:02:34.990,4.281,3117,13.3439,60,39.5,1734.0,4400,Li-ion
2023-04-14 18:02:42.345,4.283,3120,13.36296,60,39.5,1734.0,4400,Li-ion
2023-04-14 18:02:49.829,4.283,3123,13.3758,60,39.5,1734.0,4400,Li-ion
2023-04-14 18:02:57.157,4.284,3123,13.3789,60,39.5,1734.0,4400,Li-ion
2023-04-14 18:03:04.519,4.285,3124,13.38634,60,39.5,1734.0,4400,Li-ion
2023-04-14 18:03:11.899,4.277,3022,12.9251,60,39.5,1734.0,4400,Li-ion
2023-04-14 18:03:32.161,4.28,3019,12.92132,61,39.6,1803.36,4400,Li-ion
2023-04-14 18:03:39.765,4.28,3025,12.947,61,39.5,1803.36,4400,Li-ion
2023-04-14 18:03:58.488,4.281,3023,12.9415,62,39.6,1803.36,4400,Li-ion
2023-04-14 18:04:05.856,4.282,3018,12.9231,62,39.6,1803.36,4400,Li-ion
2023-04-14 18:04:20.423,4.286,3024,12.9609,63,39.6,1838.04,4400,Li-ion
2023-04-14 18:04:38.394,4.282,2961,12.679,63,39.6,1838.04,4400,Li-ion
2023-04-14 18:04:45.960,4.277,2919,12.4846,64,39.6,1838.04,4400,Li-ion
2023-04-14 18:05:00.330,4.279,2918,12.4861,64,39.7,1838.04,4400,Li-ion
2023-04-14 18:05:07.979,4.28,2918,12.48904,64,39.7,1838.04,4400,Li-ion
2023-04-14 18:05:23.322,4.281,2914,12.4748,65,39.8,1907.4,4400,Li-ion
2023-04-14 18:05:38.466,4.284,2917,12.4964,65,39.8,1907.4,4400,Li-ion
2023-04-14 18:06:06.264,4.285,2918,12.50363,65,39.9,1907.4,4400,Li-ion
2023-04-14 18:06:13.602,4.282,2816,12.0581,65,39.8,1907.4,4400,Li-ion
2023-04-14 18:06:20.955,4.187,1774,7.42774,65,39.4,1907.4,4400,Li-ion
2023-04-14 18:06:28.336,4.18,1815,7.5867,66,39.4,1942.08,4400,Li-ion
2023-04-14 18:06:35.663,4.169,1825,7.60842,66,39.4,1942.08,4400,Li-ion
2023-04-14 18:06:43.001,4.167,1688,7.033896,66,39.3,1942.08,4400,Li-ion
2023-04-14 18:06:50.305,4.135,1709,7.066715,67,39.3,1942.08,4400,Li-ion
2023-04-14 18:06:57.743,4.166,1646,6.857236,67,39.3,1942.08,4400,Li-ion
2023-04-14 18:07:05.086,4.159,1672,6.953848,67,39.3,1942.08,4400,Li-ion
2023-04-14 18:07:12.402,4.146,1779,7.375734,67,39.3,1942.08,4400,Li-ion
2023-04-14 18:07:19.741,4.144,1622,6.721568,67,39.3,1942.08,4400,Li-ion
2023-04-14 18:07:27.083,4.156,1468,6.10101,67,39.3,1942.08,4400,Li-ion
2023-04-14 18:07:34.482,4.152,1586,6.585072,68,39.3,1976.76,4400,Li-ion
2023-04-14 18:07:41.822,4.146,1336,5.539056,68,39.3,1976.76,4400,Li-ion
2023-04-14 18:07:49.130,4.137,1500,6.2055,68,39.3,1976.76,4400,Li-ion
2023-04-14 18:07:56.442,4.136,1382,5.715952,68,39.2,1976.76,4400,Li-ion
2023-04-14 18:08:03.791,4.135,1482,6.12807,68,39.2,1976.76,4400,Li-ion
2023-04-14 18:08:11.115,4.137,1414,5.84972,68,39.2,1976.76,4400,Li-ion
2023-04-14 18:08:19.042,4.26,2802,11.93652,68,40.0,1976.76,4400,Li-ion
2023-04-14 18:08:27.465,4.272,2814,12.0214,68,39.7,1976.76,4400,Li-ion
2023-04-14 18:08:35.287,4.199,1920,8.06208,69,39.3,2011.44,4400,Li-ion
2023-04-14 18:08:42.643,4.19,1896,7.94424,69,39.2,2011.44,4400,Li-ion
2023-04-14 18:08:50.008,4.186,1923,8.049678,69,39.2,2011.44,4400,Li-ion
2023-04-14 18:08:57.362,4.175,1567,6.54222,69,39.1,2011.44,4400,Li-ion
2023-04-14 18:09:04.651,4.176,1784,7.44998,69,39.1,2011.44,4400,Li-ion
2023-04-14 18:09:12.117,4.168,1731,7.214808,69,39.1,2011.44,4400,Li-ion
2023-04-14 18:09:19.461,4.171,1756,7.324276,69,39.1,2011.44,4400,Li-ion
2023-04-14 18:09:26.782,4.175,1762,7.35635,69,39.1,2011.44,4400,Li-ion
2023-04-14 18:09:34.106,4.157,1589,6.605473,70,39.1,2011.44,4400,Li-ion
2023-04-14 18:09:41.438,4.167,1710,7.12557,70,39.1,2011.44,4400,Li-ion
2023-04-14 18:09:48.785,4.162,1630,6.78406,70,39.1,2011.44,4400,Li-ion
2023-04-14 18:09:56.128,4.163,1651,6.87311,70,39.0,2011.44,4400,Li-ion
2023-04-14 18:10:03.449,4.149,1515,6.285735,70,39.0,2011.44,4400,Li-ion
2023-04-14 18:10:10.803,4.156,1612,6.699472,70,39.0,2011.44,4400,Li-ion
2023-04-14 18:10:18.211,4.282,2812,12.041,70,39.6,2011.44,4400,Li-ion
2023-04-14 18:10:34.350,4.279,2719,11.6346,70,39.5,2011.44,4400,Li-ion
2023-04-14 18:10:47.794,4.277,2683,11.4752,71,39.5,2080.8,4400,Li-ion
2023-04-14 18:10:57.530,4.278,2612,11.1741,71,39.4,2080.8,4400,Li-ion
2023-04-14 18:11:05.077,4.28,2610,11.1708,71,39.5,2080.8,4400,Li-ion
2023-04-14 18:11:14.129,4.281,2612,11.182,71,39.5,2080.8,4400,Li-ion
2023-04-14 18:11:29.270,4.284,2612,11.1898,71,39.5,2080.8,4400,Li-ion
2023-04-14 18:11:40.119,4.286,2613,11.1993,72,39.6,2115.48,4400,Li-ion
2023-04-14 18:11:48.655,4.287,2605,11.1676,72,39.5,2115.48,4400,Li-ion
2023-04-14 18:12:00.367,4.278,2507,10.7249,72,39.5,2115.48,4400,Li-ion
2023-04-14 18:12:15.261,4.278,2507,10.7249,72,39.5,2115.48,4400,Li-ion
2023-04-14 18:12:34.554,4.282,2509,10.7435,72,39.4,2115.48,4400,Li-ion
2023-04-14 18:12:42.058,4.283,2504,10.7246,73,39.6,2150.16,4400,Li-ion
2023-04-14 18:12:49.373,4.194,1496,6.274224,73,39.2,2150.16,4400,Li-ion
2023-04-14 18:12:56.726,4.221,1687,7.120827,73,39.1,2150.16,4400,Li-ion
2023-04-14 18:13:03.976,4.2,1734,7.2828,73,39.1,2150.16,4400,Li-ion
2023-04-14 18:13:11.306,4.198,1706,7.16179,73,39.1,2150.16,4400,Li-ion
2023-04-14 18:13:18.595,4.209,1812,7.626708,73,39.1,2150.16,4400,Li-ion
2023-04-14 18:13:25.996,4.185,1597,6.68344,73,39.1,2150.16,4400,Li-ion
2023-04-14 18:13:33.291,4.174,1262,5.26759,73,39.0,2150.16,4400,Li-ion
2023-04-14 18:13:40.612,4.195,1470,6.16665,73,39.0,2150.16,4400,Li-ion
2023-04-14 18:13:47.941,4.195,1699,7.12731,74,39.0,2184.84,4400,Li-ion
2023-04-14 18:13:55.279,4.192,1673,7.01322,74,39.0,2184.84,4400,Li-ion
2023-04-14 18:14:02.586,4.177,1477,6.169429,74,39.0,2184.84,4400,Li-ion
2023-04-14 18:14:09.942,4.177,1504,6.282208,74,39.0,2184.84,4400,Li-ion
2023-04-14 18:14:17.257,4.274,2497,10.6722,74,39.5,2184.84,4400,Li-ion
2023-04-14 18:14:24.544,4.283,1862,7.97495,74,39.2,2184.84,4400,Li-ion
2023-04-14 18:14:31.922,4.216,1893,7.980888,74,39.0,2184.84,4400,Li-ion
2023-04-14 18:14:39.357,4.226,1911,8.075886,74,39.0,2184.84,4400,Li-ion
2023-04-14 18:14:46.723,4.213,1754,7.389602,75,39.0,2219.52,4400,Li-ion
2023-04-14 18:14:54.049,4.209,1793,7.54674,75,39.0,2219.52,4400,Li-ion
2023-04-14 18:15:01.453,4.212,1752,7.37942,75,39.0,2219.52,4400,Li-ion
2023-04-14 18:15:08.840,4.209,1732,7.28999,75,39.0,2219.52,4400,Li-ion
2023-04-14 18:15:16.186,4.206,1666,7.007196,76,39.0,2219.52,4400,Li-ion
2023-04-14 18:15:23.549,4.203,1659,6.97278,76,38.9,2219.52,4400,Li-ion
2023-04-14 18:15:30.942,4.204,1610,6.76844,76,38.9,2219.52,4400,Li-ion
2023-04-14 18:15:38.335,4.195,1638,6.87141,76,38.9,2219.52,4400,Li-ion
2023-04-14 18:15:45.728,4.199,1298,5.450302,76,38.9,2219.52,4400,Li-ion
2023-04-14 18:15:53.087,4.189,1586,6.643754,77,38.9,2254.2,4400,Li-ion
2023-04-14 18:16:00.405,4.283,2407,10.3092,77,39.2,2254.2,4400,Li-ion
2023-04-14 18:16:07.884,4.282,2403,10.2896,77,39.2,2254.2,4400,Li-ion
2023-04-14 18:16:21.561,4.279,2305,9.863095,77,39.2,2254.2,4400,Li-ion
2023-04-14 18:16:35.447,4.283,2302,9.859466,77,39.1,2254.2,4400,Li-ion
2023-04-14 18:16:52.070,4.286,2304,9.87494,78,39.1,2288.88,4400,Li-ion
2023-04-14 18:17:06.934,4.278,2199,9.407322,78,39.1,2288.88,4400,Li-ion
2023-04-14 18:17:23.306,4.279,2199,9.409521,78,39.0,2288.88,4400,Li-ion
2023-04-14 18:17:32.000,4.283,2207,9.452581,78,39.1,2288.88,4400,Li-ion
2023-04-14 18:17:45.537,4.285,2205,9.448425,78,39.0,2288.88,4400,Li-ion
2023-04-14 18:17:56.395,4.285,2204,9.44414,79,39.0,2323.56,4400,Li-ion
2023-04-14 18:18:07.777,4.287,2203,9.444261,79,39.1,2323.56,4400,Li-ion
2023-04-14 18:18:20.833,4.279,2102,8.994458,79,39.1,2323.56,4400,Li-ion
2023-04-14 18:18:45.327,4.283,2101,8.998583,79,39.1,2323.56,4400,Li-ion
2023-04-14 18:18:58.828,4.283,2099,8.99002,80,39.0,2358.24,4400,Li-ion
2023-04-14 18:19:16.016,4.284,2100,8.9964,80,39.1,2358.24,4400,Li-ion
2023-04-14 18:19:29.525,4.286,2098,8.99203,80,39.1,2358.24,4400,Li-ion
2023-04-14 18:19:41.457,4.278,2001,8.56028,80,39.0,2358.24,4400,Li-ion
2023-04-14 18:20:00.915,4.281,2003,8.574843,81,39.0,2392.92,4400,Li-ion
2023-04-14 18:20:12.232,4.28,1998,8.55144,81,39.0,2392.92,4400,Li-ion
2023-04-14 18:20:39.607,4.286,1996,8.554856,81,38.9,2392.92,4400,Li-ion
2023-04-14 18:21:03.405,4.279,1949,8.339771,82,39.0,2427.6,4400,Li-ion
2023-04-14 18:21:12.420,4.278,1901,8.13248,82,38.9,2427.6,4400,Li-ion
2023-04-14 18:21:28.305,4.279,1898,8.121542,82,39.0,2427.6,4400,Li-ion
2023-04-14 18:21:52.025,4.281,1900,8.1339,82,38.9,2427.6,4400,Li-ion
2023-04-14 18:22:06.350,4.285,1895,8.120075,83,38.9,2462.28,4400,Li-ion
2023-04-14 18:22:25.767,4.287,1896,8.128152,83,38.9,2462.28,4400,Li-ion
2023-04-14 18:22:36.446,4.278,1790,7.65762,83,38.8,2462.28,4400,Li-ion
2023-04-14 18:22:49.493,4.277,1795,7.677215,83,38.9,2462.28,4400,Li-ion
2023-04-14 18:23:10.816,4.28,1798,7.69544,84,38.9,2496.96,4400,Li-ion
2023-04-14 18:23:23.969,4.283,1793,7.679419,84,38.8,2496.96,4400,Li-ion
2023-04-14 18:23:56.622,4.286,1797,7.70194,84,38.8,2496.96,4400,Li-ion
2023-04-14 18:24:10.724,4.293,1844,7.916292,84,38.8,2496.96,4400,Li-ion
2023-04-14 18:24:18.044,4.293,1830,7.85619,85,38.8,2531.64,4400,Li-ion
2023-04-14 18:24:25.396,4.293,1819,7.808967,85,38.8,2531.64,4400,Li-ion
2023-04-14 18:24:32.949,4.294,1811,7.77643,85,38.9,2531.64,4400,Li-ion
2023-04-14 18:24:40.281,4.294,1799,7.72491,85,38.9,2531.64,4400,Li-ion
2023-04-14 18:24:47.605,4.293,1792,7.693056,85,38.8,2531.64,4400,Li-ion
2023-04-14 18:24:54.922,4.293,1780,7.64154,85,38.8,2531.64,4400,Li-ion
2023-04-14 18:25:02.240,4.293,1775,7.620075,85,38.9,2531.64,4400,Li-ion
2023-04-14 18:25:09.578,4.293,1765,7.577145,85,38.9,2531.64,4400,Li-ion
2023-04-14 18:25:16.891,4.293,1757,7.542801,86,38.9,2566.32,4400,Li-ion
2023-04-14 18:25:24.223,4.294,1747,7.501618,86,38.9,2566.32,4400,Li-ion
2023-04-14 18:25:31.555,4.294,1744,7.48874,86,38.9,2566.32,4400,Li-ion
2023-04-14 18:25:38.892,4.293,1734,7.44406,86,38.9,2566.32,4400,Li-ion
2023-04-14 18:25:46.229,4.293,1723,7.39684,86,38.9,2566.32,4400,Li-ion
2023-04-14 18:26:07.303,4.293,1715,7.3625,86,39.0,2566.32,4400,Li-ion
2023-04-14 18:26:14.660,4.202,865,3.63473,86,39.0,2566.32,4400,Li-ion
2023-04-14 18:26:21.923,4.243,1249,5.29951,87,38.8,2566.32,4400,Li-ion
2023-04-14 18:26:29.225,4.24,1148,4.86752,87,38.7,2566.32,4400,Li-ion
2023-04-14 18:26:36.485,4.235,1259,5.331865,87,38.7,2566.32,4400,Li-ion
2023-04-14 18:26:43.803,4.221,831,3.507651,87,38.7,2566.32,4400,Li-ion
2023-04-14 18:26:51.126,4.235,835,3.536225,87,38.7,2566.32,4400,Li-ion
2023-04-14 18:26:58.528,4.196,1210,5.07716,87,38.6,2566.32,4400,Li-ion
2023-04-14 18:27:05.793,4.241,1159,4.91532,87,38.6,2566.32,4400,Li-ion
2023-04-14 18:27:13.193,4.237,1195,5.06322,87,38.6,2566.32,4400,Li-ion
2023-04-14 18:27:20.470,4.224,1194,5.043456,87,38.6,2601.0,4400,Li-ion
2023-04-14 18:27:27.821,4.225,893,3.772925,87,38.6,2601.0,4400,Li-ion
2023-04-14 18:27:35.059,4.225,1166,4.92635,87,38.6,2601.0,4400,Li-ion
2023-04-14 18:27:42.586,4.249,910,3.86659,87,38.6,2601.0,4400,Li-ion
2023-04-14 18:27:49.961,4.213,1253,5.278889,87,38.6,2601.0,4400,Li-ion
2023-04-14 18:27:57.257,4.232,729,3.085128,87,38.6,2601.0,4400,Li-ion
2023-04-14 18:28:04.583,4.204,1175,4.9397,87,38.6,2601.0,4400,Li-ion
2023-04-14 18:28:11.851,4.246,1203,5.10794,87,38.6,2601.0,4400,Li-ion
2023-04-14 18:28:19.138,4.251,1169,4.969419,87,38.6,2601.0,4400,Li-ion
2023-04-14 18:28:26.423,4.211,772,3.25089,88,38.6,2601.0,4400,Li-ion
2023-04-14 18:28:33.718,4.24,1216,5.15584,88,38.6,2601.0,4400,Li-ion
2023-04-14 18:28:41.078,4.24,1210,5.1304,88,38.6,2601.0,4400,Li-ion
2023-04-14 18:28:48.379,4.232,813,3.440616,88,38.6,2601.0,4400,Li-ion
2023-04-14 18:28:55.709,4.223,1301,5.49412,88,38.6,2601.0,4400,Li-ion
2023-04-14 18:29:03.109,4.243,1097,4.65457,88,38.6,2601.0,4400,Li-ion
2023-04-14 18:29:10.712,4.236,960,4.06656,88,38.6,2601.0,4400,Li-ion
2023-04-14 18:29:18.057,4.226,1232,5.206432,88,38.6,2601.0,4400,Li-ion
2023-04-14 18:29:25.341,4.243,1234,5.235862,88,38.6,2635.68,4400,Li-ion
2023-04-14 18:29:32.608,4.227,1224,5.173848,88,38.6,2635.68,4400,Li-ion
2023-04-14 18:29:39.988,4.25,899,3.82075,88,38.7,2635.68,4400,Li-ion
2023-04-14 18:29:47.344,4.238,1255,5.31869,88,38.7,2635.68,4400,Li-ion
2023-04-14 18:29:54.610,4.238,1132,4.797416,88,38.7,2635.68,4400,Li-ion
2023-04-14 18:30:01.815,4.233,1191,5.041503,88,38.7,2635.68,4400,Li-ion
2023-04-14 18:30:09.089,4.234,673,2.849482,88,38.7,2635.68,4400,Li-ion
2023-04-14 18:30:16.357,4.206,839,3.528834,88,38.7,2635.68,4400,Li-ion
2023-04-14 18:30:23.666,4.217,1255,5.29233,88,38.7,2635.68,4400,Li-ion
2023-04-14 18:30:30.956,4.249,1191,5.060559,89,38.7,2670.36,4400,Li-ion
2023-04-14 18:30:38.212,4.244,1260,5.34744,89,38.7,2670.36,4400,Li-ion
2023-04-14 18:30:45.522,4.243,735,3.118605,89,38.7,2670.36,4400,Li-ion
2023-04-14 18:30:52.843,4.245,1226,5.20437,89,38.7,2670.36,4400,Li-ion
2023-04-14 18:31:00.066,4.218,741,3.125538,89,38.7,2670.36,4400,Li-ion
2023-04-14 18:31:07.363,4.218,1109,4.677762,89,38.7,2670.36,4400,Li-ion
2023-04-14 18:31:14.584,4.238,1119,4.74232,89,38.7,2670.36,4400,Li-ion
2023-04-14 18:31:21.954,4.252,951,4.043652,89,38.8,2670.36,4400,Li-ion
2023-04-14 18:31:29.223,4.195,1035,4.341825,89,38.7,2670.36,4400,Li-ion
2023-04-14 18:31:36.488,4.241,1185,5.025585,89,38.8,2670.36,4400,Li-ion
2023-04-14 18:31:43.709,4.221,784,3.309264,89,38.8,2670.36,4400,Li-ion
2023-04-14 18:31:50.987,4.251,737,3.13299,89,38.8,2670.36,4400,Li-ion
2023-04-14 18:31:58.207,4.25,1225,5.20625,89,38.8,2670.36,4400,Li-ion
2023-04-14 18:32:05.421,4.234,1030,4.36102,89,38.7,2670.36,4400,Li-ion
2023-04-14 18:32:12.656,4.234,942,3.988428,89,38.7,2670.36,4400,Li-ion
2023-04-14 18:32:19.907,4.225,1048,4.4278,89,38.7,2670.36,4400,Li-ion
2023-04-14 18:32:27.184,4.242,997,4.229274,89,38.7,2670.36,4400,Li-ion
2023-04-14 18:32:34.698,4.212,701,2.952612,90,38.7,2705.04,4400,Li-ion
2023-04-14 18:32:42.050,4.227,1100,4.6497,90,38.7,2705.04,4400,Li-ion
2023-04-14 18:32:49.283,4.241,916,3.884756,90,38.7,2705.04,4400,Li-ion
2023-04-14 18:32:56.600,4.262,1250,5.3275,90,38.7,2705.04,4400,Li-ion
2023-04-14 18:33:03.936,4.21,1215,5.11515,90,38.7,2705.04,4400,Li-ion
2023-04-14 18:33:11.216,4.226,747,3.156822,90,38.7,2705.04,4400,Li-ion
2023-04-14 18:33:18.584,4.226,1215,5.13459,90,38.7,2705.04,4400,Li-ion
2023-04-14 18:33:25.990,4.254,1275,5.42385,90,38.7,2705.04,4400,Li-ion
2023-04-14 18:33:33.273,4.268,924,3.943632,90,38.7,2705.04,4400,Li-ion
2023-04-14 18:33:40.517,4.263,1285,5.477955,90,38.7,2705.04,4400,Li-ion
2023-04-14 18:33:47.805,4.26,1182,5.03532,90,38.7,2705.04,4400,Li-ion
2023-04-14 18:33:55.041,4.264,1231,5.24898,90,38.7,2705.04,4400,Li-ion
2023-04-14 18:34:02.288,4.263,1180,5.03034,90,38.7,2705.04,4400,Li-ion
2023-04-14 18:34:09.562,4.265,914,3.89821,90,38.7,2705.04,4400,Li-ion
2023-04-14 18:34:16.964,4.212,804,3.386448,90,38.7,2705.04,4400,Li-ion
2023-04-14 18:34:24.245,4.204,882,3.707928,90,38.7,2705.04,4400,Li-ion
2023-04-14 18:34:31.542,4.204,1018,4.279672,90,38.7,2705.04,4400,Li-ion
2023-04-14 18:34:38.852,4.238,817,3.46245,91,38.7,2739.72,4400,Li-ion
2023-04-14 18:34:46.147,4.256,1141,4.856096,91,38.7,2739.72,4400,Li-ion
2023-04-14 18:34:53.787,4.215,639,2.693385,91,38.7,2739.72,4400,Li-ion
2023-04-14 18:35:01.434,4.203,544,2.28643,91,38.7,2739.72,4400,Li-ion
2023-04-14 18:35:08.997,4.196,660,2.76936,91,38.7,2739.72,4400,Li-ion
2023-04-14 18:35:16.740,4.192,415,1.73968,91,38.7,2739.72,4400,Li-ion
2023-04-14 18:35:24.339,4.191,803,3.365373,91,38.7,2739.72,4400,Li-ion
2023-04-14 18:35:32.270,4.188,644,2.697072,91,38.7,2739.72,4400,Li-ion
2023-04-14 18:35:39.874,4.213,608,2.561504,91,38.7,2739.72,4400,Li-ion
2023-04-14 18:35:47.476,4.195,481,2.017795,91,38.7,2739.72,4400,Li-ion
2023-04-14 18:35:54.929,4.191,849,3.558159,91,38.7,2739.72,4400,Li-ion
2023-04-14 18:36:02.476,4.218,825,3.47985,91,38.7,2739.72,4400,Li-ion
2023-04-14 18:36:09.793,4.218,1040,4.38672,91,38.7,2739.72,4400,Li-ion
2023-04-14 18:36:17.226,4.255,1026,4.36563,91,38.7,2739.72,4400,Li-ion
2023-04-14 18:36:24.547,4.251,946,4.021446,91,38.7,2739.72,4400,Li-ion
2023-04-14 18:36:31.837,4.253,1195,5.08234,91,38.8,2739.72,4400,Li-ion
2023-04-14 18:36:39.274,4.264,1329,5.666856,91,38.8,2739.72,4400,Li-ion
2023-04-14 18:36:48.035,4.262,1318,5.617316,91,38.8,2739.72,4400,Li-ion
2023-04-14 18:36:55.324,4.273,1234,5.27288,91,38.8,2739.72,4400,Li-ion
2023-04-14 18:37:02.596,4.267,1261,5.380687,91,38.8,2739.72,4400,Li-ion
2023-04-14 18:37:09.851,4.264,1334,5.688176,91,38.8,2739.72,4400,Li-ion
2023-04-14 18:37:17.101,4.251,968,4.114968,91,38.9,2739.72,4400,Li-ion
2023-04-14 18:37:24.359,4.229,1193,5.045197,91,38.9,2739.72,4400,Li-ion
2023-04-14 18:37:31.733,4.246,719,3.052874,91,38.9,2739.72,4400,Li-ion
2023-04-14 18:37:39.076,4.246,1274,5.409404,91,38.9,2739.72,4400,Li-ion
2023-04-14 18:37:46.385,4.276,1103,4.716428,91,38.9,2739.72,4400,Li-ion
2023-04-14 18:37:53.717,4.261,754,3.212794,92,38.9,2774.4,4400,Li-ion
2023-04-14 18:38:01.040,4.226,730,3.08498,92,39.0,2774.4,4400,Li-ion
2023-04-14 18:38:08.318,4.246,1219,5.17587,92,39.0,2774.4,4400,Li-ion
2023-04-14 18:38:15.637,4.231,882,3.731742,92,39.0,2774.4,4400,Li-ion
2023-04-14 18:38:22.912,4.244,971,4.120924,92,39.0,2774.4,4400,Li-ion
2023-04-14 18:38:30.270,4.231,1091,4.616021,92,39.0,2774.4,4400,Li-ion
2023-04-14 18:38:37.530,4.249,1158,4.92034,92,39.0,2774.4,4400,Li-ion
2023-04-14 18:38:44.789,4.249,967,4.108783,92,39.0,2774.4,4400,Li-ion
2023-04-14 18:38:52.032,4.241,1014,4.300374,92,39.0,2774.4,4400,Li-ion
2023-04-14 18:38:59.260,4.253,1258,5.350274,92,39.0,2774.4,4400,Li-ion
2023-04-14 18:39:10.748,4.267,1361,5.807387,92,39.0,2774.4,4400,Li-ion
2023-04-14 18:39:18.015,4.265,1307,5.574355,92,39.1,2774.4,4400,Li-ion
2023-04-14 18:39:25.275,4.265,1344,5.73216,92,39.1,2774.4,4400,Li-ion
2023-04-14 18:39:32.539,4.29,1250,5.3625,92,39.1,2774.4,4400,Li-ion
2023-04-14 18:39:43.610,4.294,1231,5.285914,92,39.0,2774.4,4400,Li-ion
2023-04-14 18:39:50.912,4.289,1241,5.322649,92,39.1,2774.4,4400,Li-ion
2023-04-14 18:39:58.207,4.292,1112,4.772704,93,39.1,2809.08,4400,Li-ion
2023-04-14 18:40:05.544,4.292,1309,5.61823,93,39.1,2809.08,4400,Li-ion
2023-04-14 18:40:16.565,4.293,1133,4.863969,93,39.0,2809.08,4400,Li-ion
2023-04-14 18:40:23.815,4.281,1218,5.21426,93,39.1,2809.08,4400,Li-ion
2023-04-14 18:40:31.121,4.293,1268,5.443524,93,39.1,2809.08,4400,Li-ion
2023-04-14 18:40:47.616,4.288,1204,5.162752,93,39.0,2809.08,4400,Li-ion
2023-04-14 18:40:54.929,4.262,1118,4.764916,93,39.0,2843.76,4400,Li-ion
2023-04-14 18:41:02.192,4.278,1114,4.765692,93,39.0,2843.76,4400,Li-ion
2023-04-14 18:41:09.626,4.293,1234,5.297562,93,38.9,2843.76,4400,Li-ion
2023-04-14 18:41:28.470,4.293,1210,5.19453,93,38.9,2843.76,4400,Li-ion
2023-04-14 18:41:45.827,4.294,1198,5.144212,93,39.0,2843.76,4400,Li-ion
2023-04-14 18:42:00.205,4.294,1181,5.071214,94,38.8,2843.76,4400,Li-ion
2023-04-14 18:42:12.529,4.294,1179,5.062626,94,38.8,2843.76,4400,Li-ion
2023-04-14 18:42:25.557,4.294,1160,4.98104,94,38.9,2843.76,4400,Li-ion
2023-04-14 18:42:59.616,4.294,1139,4.890866,94,38.8,2843.76,4400,Li-ion
2023-04-14 18:43:10.731,4.294,1132,4.86081,94,38.8,2878.44,4400,Li-ion
2023-04-14 18:43:40.102,4.295,1110,4.76745,94,38.7,2878.44,4400,Li-ion
2023-04-14 18:43:56.731,4.295,1097,4.711615,94,38.6,2878.44,4400,Li-ion
2023-04-14 18:44:11.741,4.295,1085,4.660075,95,38.6,2878.44,4400,Li-ion
2023-04-14 18:44:37.279,4.294,1069,4.59029,95,38.5,2878.44,4400,Li-ion
2023-04-14 18:45:00.436,4.294,1050,4.5087,95,38.4,2878.44,4400,Li-ion
2023-04-14 18:45:11.183,4.295,1041,4.471095,95,38.3,2913.12,4400,Li-ion
2023-04-14 18:45:18.517,4.294,1037,4.45288,95,38.2,2913.12,4400,Li-ion
2023-04-14 18:45:25.849,4.293,1030,4.42179,95,38.2,2913.12,4400,Li-ion
2023-04-14 18:45:33.181,4.293,1029,4.417497,95,38.2,2913.12,4400,Li-ion
2023-04-14 18:45:40.535,4.294,1020,4.37988,95,38.2,2913.12,4400,Li-ion
2023-04-14 18:45:52.028,4.294,1014,4.35412,95,38.2,2913.12,4400,Li-ion
2023-04-14 18:46:09.797,4.294,1002,4.30259,96,38.2,2913.12,4400,Li-ion
2023-04-14 18:46:17.270,4.294,998,4.285412,96,38.2,2913.12,4400,Li-ion
2023-04-14 18:46:36.163,4.295,614,2.63713,96,38.0,2913.12,4400,Li-ion
2023-04-14 18:46:43.708,4.294,989,4.24677,96,38.3,2913.12,4400,Li-ion
2023-04-14 18:47:13.445,4.293,957,4.108401,96,38.1,2947.8,4400,Li-ion
2023-04-14 18:47:39.109,4.293,952,4.086936,96,37.8,2947.8,4400,Li-ion
2023-04-14 18:47:52.259,4.294,935,4.01489,96,37.7,2947.8,4400,Li-ion
2023-04-14 18:48:08.552,4.294,923,3.963362,96,37.7,2947.8,4400,Li-ion
2023-04-14 18:48:26.372,4.294,919,3.946186,97,37.5,2947.8,4400,Li-ion
2023-04-14 18:48:37.339,4.294,910,3.90754,97,37.5,2947.8,4400,Li-ion
2023-04-14 18:48:50.449,4.294,900,3.8646,97,37.5,2947.8,4400,Li-ion
2023-04-14 18:49:13.524,4.293,883,3.790719,97,37.4,2947.8,4400,Li-ion
2023-04-14 18:49:25.238,4.294,877,3.765838,97,37.4,2982.48,4400,Li-ion
2023-04-14 18:49:41.508,4.294,867,3.722898,97,37.3,2982.48,4400,Li-ion
2023-04-14 18:49:55.345,4.294,861,3.697134,97,37.3,2982.48,4400,Li-ion
2023-04-14 18:50:14.290,4.293,851,3.653343,97,37.4,2982.48,4400,Li-ion
2023-04-14 18:50:37.749,4.294,845,3.62843,97,37.4,2982.48,4400,Li-ion
2023-04-14 18:51:08.622,4.294,830,3.56402,97,37.5,2982.48,4400,Li-ion
2023-04-14 18:51:21.774,4.294,821,3.525374,98,37.5,3017.16,4400,Li-ion
2023-04-14 18:51:33.732,4.294,817,3.5082,98,37.4,3017.16,4400,Li-ion
2023-04-14 18:51:49.021,4.293,809,3.473037,98,37.4,3017.16,4400,Li-ion
2023-04-14 18:52:13.529,4.294,795,3.41373,98,37.4,3017.16,4400,Li-ion
2023-04-14 18:52:39.183,4.294,787,3.379378,98,37.4,3017.16,4400,Li-ion
2023-04-14 18:53:10.693,4.294,774,3.323556,98,37.4,3017.16,4400,Li-ion
2023-04-14 18:53:28.319,4.294,770,3.30638,98,37.3,3017.16,4400,Li-ion
2023-04-14 18:53:44.572,4.294,759,3.259146,98,37.4,3017.16,4400,Li-ion
2023-04-14 18:54:16.016,4.294,746,3.203324,98,37.4,3017.16,4400,Li-ion
2023-04-14 18:54:40.267,4.294,735,3.15609,99,37.3,3051.84,4400,Li-ion
2023-04-14 18:54:58.989,4.294,729,3.130326,99,37.3,3051.84,4400,Li-ion
2023-04-14 18:55:19.342,4.295,721,3.096695,99,37.3,3051.84,4400,Li-ion
2023-04-14 18:55:35.005,4.295,718,3.08381,99,37.3,3051.84,4400,Li-ion
2023-04-14 18:55:42.251,4.294,710,3.04874,99,37.3,3051.84,4400,Li-ion
2023-04-14 18:55:49.607,4.294,717,3.0788,99,37.4,3051.84,4400,Li-ion
2023-04-14 18:55:56.970,4.291,723,3.102393,99,37.5,3051.84,4400,Li-ion
2023-04-14 18:56:08.257,4.293,706,3.030858,99,37.5,3051.84,4400,Li-ion
2023-04-14 18:56:37.133,4.294,693,2.97574,99,37.5,3086.52,4400,Li-ion
2023-04-14 18:56:50.963,4.294,689,2.958566,99,37.3,3086.52,4400,Li-ion
2023-04-14 18:57:09.782,4.295,683,2.933485,99,37.3,3086.52,4400,Li-ion
2023-04-14 18:57:34.159,4.295,671,2.881945,99,37.3,3086.52,4400,Li-ion
2023-04-14 18:57:50.524,4.295,665,2.856175,99,37.2,3086.52,4400,Li-ion
2023-04-14 18:58:04.755,4.295,662,2.84329,99,37.3,3086.52,4400,Li-ion
2023-04-14 18:58:29.911,4.294,658,2.825452,99,37.2,3086.52,4400,Li-ion
2023-04-14 18:58:53.717,4.294,647,2.778218,99,37.3,3086.52,4400,Li-ion
2023-04-14 18:59:10.064,4.294,640,2.74816,99,37.2,3086.52,4400,Li-ion
2023-04-14 18:59:42.740,4.294,627,2.692338,99,37.2,3086.52,4400,Li-ion
2023-04-14 19:00:02.306,4.294,625,2.68375,99,37.3,3121.2,4400,Li-ion
2023-04-14 19:00:09.625,4.295,621,2.667195,99,37.1,3121.2,4400,Li-ion
2023-04-14 19:00:16.961,4.294,617,2.649398,99,37.1,3121.2,4400,Li-ion
2023-04-14 19:00:24.935,4.294,618,2.653692,99,37.1,3121.2,4400,Li-ion
2023-04-14 19:00:32.362,4.294,614,2.636516,99,37.1,3121.2,4400,Li-ion
2023-04-14 19:00:50.827,4.294,608,2.610752,100,37.1,3121.2,4400,Li-ion
2023-04-14 19:00:53.524,4.294,399,1.713306,100,37.1,3121.2,4400,Li-ion