File: dataset/samsung_s21fe-data.csv
timestamp,voltage(V),current(mA),power(W),battery_percent,battery_temperature(Celsius),remaining_battery_charge(mAh),battery_capacity(mAh),battery_technology
2023-04-14 13:05:45.846,3.36,1595,5.3592,1,37.1,0.0,4370,Li-ion
2023-04-14 13:05:53.200,3.36,1410,4.7376,1,37.1,0.0,4370,Li-ion
2023-04-14 13:06:00.541,3.517,2763,9.717471,1,36.7,0.0,4370,Li-ion
2023-04-14 13:06:07.872,3.697,4869,18.0007,1,37.0,0.0,4370,Li-ion
2023-04-14 13:06:15.241,3.697,4819,17.8158,1,37.0,0.0,4370,Li-ion
2023-04-14 13:06:22.639,3.745,4783,17.9123,1,37.5,8.264,4370,Li-ion
2023-04-14 13:06:29.987,3.77,4817,18.16009,1,37.8,20.66,4370,Li-ion
2023-04-14 13:06:37.347,3.807,4855,18.483,1,38.1,37.188,4370,Li-ion
2023-04-14 13:06:44.742,3.807,4789,18.2317,1,38.1,37.188,4370,Li-ion
2023-04-14 13:06:52.114,3.828,4760,18.22128,1,38.3,49.584,4370,Li-ion
2023-04-14 13:06:59.455,3.851,4958,19.0933,1,38.5,61.98,4370,Li-ion
2023-04-14 13:07:06.887,3.868,4819,18.6399,2,38.6,78.508,4370,Li-ion
2023-04-14 13:07:14.308,3.868,4870,18.83716,2,38.6,78.508,4370,Li-ion
2023-04-14 13:07:21.674,3.885,4971,19.3123,2,38.7,90.904,4370,Li-ion
2023-04-14 13:07:28.961,3.897,4783,18.6394,2,38.8,103.3,4370,Li-ion
2023-04-14 13:07:36.208,3.897,4806,18.729,2,38.8,103.3,4370,Li-ion
2023-04-14 13:07:43.580,3.911,4785,18.7141,3,38.9,119.828,4370,Li-ion
2023-04-14 13:07:50.963,3.921,4808,18.8522,3,39.0,132.224,4370,Li-ion
2023-04-14 13:07:58.345,3.932,4945,19.44374,3,39.1,148.752,4370,Li-ion
2023-04-14 13:08:05.751,3.932,4861,19.1135,3,39.1,148.752,4370,Li-ion
2023-04-14 13:08:13.124,3.935,4819,18.9628,4,39.1,161.148,4370,Li-ion
2023-04-14 13:08:20.497,3.941,4830,19.03503,4,39.2,173.544,4370,Li-ion
2023-04-14 13:08:27.906,3.941,4853,19.1257,4,39.2,173.544,4370,Li-ion
2023-04-14 13:08:35.262,3.946,4943,19.5051,4,39.3,190.072,4370,Li-ion
2023-04-14 13:08:42.618,3.945,4905,19.3502,5,39.4,202.468,4370,Li-ion
2023-04-14 13:08:49.949,3.949,4579,18.0825,5,39.4,218.996,4370,Li-ion
2023-04-14 13:08:57.273,3.949,4825,19.0539,5,39.4,218.996,4370,Li-ion
2023-04-14 13:09:04.633,3.951,4881,19.2848,5,39.5,231.392,4370,Li-ion
2023-04-14 13:09:11.972,3.951,4896,19.3441,6,39.6,243.788,4370,Li-ion
2023-04-14 13:09:19.340,3.951,4830,19.08333,6,39.6,243.788,4370,Li-ion
2023-04-14 13:09:26.716,3.955,4900,19.3795,6,39.7,260.316,4370,Li-ion
2023-04-14 13:09:34.074,3.958,4874,19.2913,6,39.7,272.712,4370,Li-ion
2023-04-14 13:09:41.451,3.958,4810,19.03798,7,39.8,285.108,4370,Li-ion
2023-04-14 13:09:48.826,3.958,4781,18.9232,7,39.8,285.108,4370,Li-ion
2023-04-14 13:09:56.221,3.959,4754,18.8211,7,39.9,301.636,4370,Li-ion
2023-04-14 13:10:03.545,3.961,4821,19.096,7,39.9,314.032,4370,Li-ion
2023-04-14 13:10:10.909,3.961,4818,19.0841,7,39.9,314.032,4370,Li-ion
2023-04-14 13:10:18.260,3.964,4839,19.1818,8,40.0,326.428,4370,Li-ion
2023-04-14 13:10:25.611,3.966,4798,19.0289,8,40.1,342.956,4370,Li-ion
2023-04-14 13:10:32.987,3.968,4787,18.9948,9,40.2,355.352,4370,Li-ion
2023-04-14 13:10:40.369,3.968,4828,19.1575,9,40.2,355.352,4370,Li-ion
2023-04-14 13:10:47.714,3.968,4794,19.0226,9,40.2,371.88,4370,Li-ion
2023-04-14 13:10:55.082,3.96,4850,19.206,9,40.3,384.276,4370,Li-ion
2023-04-14 13:11:02.416,3.96,4872,19.29312,9,40.3,384.276,4370,Li-ion
2023-04-14 13:11:09.800,3.973,4852,19.277,10,40.4,396.672,4370,Li-ion
2023-04-14 13:11:17.150,3.979,4913,19.5488,10,40.5,413.2,4370,Li-ion
2023-04-14 13:11:24.470,3.978,4622,18.3863,10,40.6,425.596,4370,Li-ion
2023-04-14 13:11:31.825,3.978,4860,19.33308,10,40.6,425.596,4370,Li-ion
2023-04-14 13:11:39.182,3.98,4783,19.0363,11,40.6,437.992,4370,Li-ion
2023-04-14 13:11:46.523,3.983,4812,19.1662,11,40.7,454.52,4370,Li-ion
2023-04-14 13:11:53.890,3.983,4923,19.6083,11,40.7,454.52,4370,Li-ion
2023-04-14 13:12:01.251,3.978,4825,19.19385,11,40.8,466.916,4370,Li-ion
2023-04-14 13:12:08.594,3.985,4931,19.65,12,40.9,483.444,4370,Li-ion
2023-04-14 13:12:15.924,3.985,4779,19.0443,12,40.9,495.84,4370,Li-ion
2023-04-14 13:12:23.327,3.989,4863,19.3985,12,40.9,495.84,4370,Li-ion
2023-04-14 13:12:30.691,3.992,4906,19.5848,12,41.0,508.236,4370,Li-ion
2023-04-14 13:12:38.042,3.993,4889,19.5218,13,40.3,524.764,4370,Li-ion
2023-04-14 13:12:45.398,3.993,4753,18.9787,13,40.3,524.764,4370,Li-ion
2023-04-14 13:12:52.659,3.995,1293,5.165535,13,40.1,537.16,4370,Li-ion
2023-04-14 13:12:59.946,3.876,4436,17.1939,13,40.0,549.556,4370,Li-ion
2023-04-14 13:13:07.301,3.876,4808,18.6358,13,40.0,549.556,4370,Li-ion
2023-04-14 13:13:14.684,3.994,3988,15.9281,13,40.0,561.952,4370,Li-ion
2023-04-14 13:13:22.085,3.997,4875,19.4854,14,40.0,574.348,4370,Li-ion
2023-04-14 13:13:29.444,4.0,4816,19.264,14,40.2,586.744,4370,Li-ion
2023-04-14 13:13:36.832,4.0,4864,19.456,14,40.2,586.744,4370,Li-ion
2023-04-14 13:13:44.169,3.995,4887,19.5236,14,40.4,599.14,4370,Li-ion
2023-04-14 13:13:51.528,4.007,4810,19.27367,15,40.5,615.668,4370,Li-ion
2023-04-14 13:13:58.864,4.007,4864,19.49,15,40.5,615.668,4370,Li-ion
2023-04-14 13:14:06.226,4.008,4771,19.1222,15,40.6,628.064,4370,Li-ion
2023-04-14 13:14:13.584,4.013,4783,19.1942,15,40.7,640.46,4370,Li-ion
2023-04-14 13:14:20.937,4.012,4659,18.6919,16,40.8,656.988,4370,Li-ion
2023-04-14 13:14:28.310,4.012,4826,19.3619,16,40.8,656.988,4370,Li-ion
2023-04-14 13:14:35.651,4.016,4827,19.3852,16,40.9,669.384,4370,Li-ion
2023-04-14 13:14:43.016,4.011,4796,19.2368,16,41.0,685.912,4370,Li-ion
2023-04-14 13:14:50.392,4.011,4775,19.1525,16,41.0,685.912,4370,Li-ion
2023-04-14 13:14:57.746,4.02,4875,19.5975,17,41.0,698.308,4370,Li-ion
2023-04-14 13:15:05.085,4.023,4721,18.9926,17,41.1,710.704,4370,Li-ion
2023-04-14 13:15:12.424,4.022,4801,19.3096,17,41.2,727.232,4370,Li-ion
2023-04-14 13:15:19.779,4.022,4853,19.5188,17,41.2,727.232,4370,Li-ion
2023-04-14 13:15:27.149,4.028,4802,19.3425,18,41.2,739.628,4370,Li-ion
2023-04-14 13:15:34.482,4.025,4239,17.062,18,41.3,752.024,4370,Li-ion
2023-04-14 13:15:41.714,4.025,1833,7.377825,18,41.3,752.024,4370,Li-ion
2023-04-14 13:15:49.044,3.89,2227,8.66303,18,41.3,768.552,4370,Li-ion
2023-04-14 13:15:56.362,4.012,4834,19.394,18,41.0,776.816,4370,Li-ion
2023-04-14 13:16:03.743,4.023,4851,19.5156,19,41.1,780.948,4370,Li-ion
2023-04-14 13:16:11.084,4.023,4832,19.4391,19,41.1,780.948,4370,Li-ion
2023-04-14 13:16:18.420,4.029,4597,18.5213,19,41.2,797.476,4370,Li-ion
2023-04-14 13:16:25.649,4.032,4715,19.01088,19,41.3,809.872,4370,Li-ion
2023-04-14 13:16:33.044,4.032,4894,19.7326,19,41.3,809.872,4370,Li-ion
2023-04-14 13:16:40.407,4.033,1712,6.9045,20,41.5,822.268,4370,Li-ion
2023-04-14 13:16:47.738,3.9,1875,7.3125,20,41.5,838.796,4370,Li-ion
2023-04-14 13:16:55.105,3.895,1765,6.874675,20,41.1,847.06,4370,Li-ion
2023-04-14 13:17:02.470,3.895,1895,7.381025,20,41.1,847.06,4370,Li-ion
2023-04-14 13:17:09.812,3.894,1886,7.344084,20,40.8,855.324,4370,Li-ion
2023-04-14 13:17:17.151,3.892,1847,7.188524,20,40.4,859.456,4370,Li-ion
2023-04-14 13:17:24.495,3.892,1847,7.188524,20,40.4,859.456,4370,Li-ion
2023-04-14 13:17:31.842,3.888,1839,7.150032,21,40.1,863.588,4370,Li-ion
2023-04-14 13:17:39.210,3.889,1850,7.19465,21,40.0,867.72,4370,Li-ion
2023-04-14 13:17:46.589,3.889,1839,7.151871,21,39.8,875.984,4370,Li-ion
2023-04-14 13:17:53.947,3.889,1875,7.29187,21,39.8,875.984,4370,Li-ion
2023-04-14 13:18:01.302,3.889,1910,7.42799,21,39.6,880.116,4370,Li-ion
2023-04-14 13:18:08.666,3.889,2171,8.443019,21,39.5,884.248,4370,Li-ion
2023-04-14 13:18:16.046,3.889,4864,18.9161,21,39.5,884.248,4370,Li-ion
2023-04-14 13:18:23.417,4.025,4854,19.5374,21,39.5,888.38,4370,Li-ion
2023-04-14 13:18:30.786,4.036,4800,19.3728,22,39.7,900.776,4370,Li-ion
2023-04-14 13:18:38.144,4.041,4694,18.9685,22,40.0,913.172,4370,Li-ion
2023-04-14 13:18:45.519,4.041,4882,19.7282,22,40.0,913.172,4370,Li-ion
2023-04-14 13:18:52.912,4.042,4805,19.42181,22,40.2,929.7,4370,Li-ion
2023-04-14 13:19:00.274,4.048,4791,19.394,23,40.4,942.096,4370,Li-ion
2023-04-14 13:19:07.628,4.048,4868,19.7057,23,40.4,942.096,4370,Li-ion
2023-04-14 13:19:14.975,4.047,4770,19.30419,23,40.6,954.492,4370,Li-ion
2023-04-14 13:19:22.342,4.05,4846,19.6263,23,40.8,971.02,4370,Li-ion
2023-04-14 13:19:29.702,4.053,4861,19.7016,24,40.9,983.416,4370,Li-ion
2023-04-14 13:19:37.067,4.053,4768,19.3247,24,40.9,983.416,4370,Li-ion
2023-04-14 13:19:44.462,4.054,4779,19.3741,24,41.0,999.944,4370,Li-ion
2023-04-14 13:19:51.827,4.055,4830,19.58565,24,41.2,1012.34,4370,Li-ion
2023-04-14 13:19:59.190,4.055,4819,19.541,24,41.2,1012.34,4370,Li-ion
2023-04-14 13:20:06.562,4.059,4659,18.9109,25,41.3,1024.736,4370,Li-ion
2023-04-14 13:20:13.901,4.057,4758,19.3032,25,41.4,1041.264,4370,Li-ion
2023-04-14 13:20:21.257,4.058,4769,19.3526,25,41.5,1053.66,4370,Li-ion
2023-04-14 13:20:28.603,4.058,1860,7.54788,25,41.5,1053.66,4370,Li-ion
2023-04-14 13:20:35.938,3.927,1879,7.378833,26,41.5,1070.188,4370,Li-ion
2023-04-14 13:20:43.312,3.917,1855,7.266035,26,41.1,1078.452,4370,Li-ion
2023-04-14 13:20:50.675,3.917,1860,7.28562,26,41.1,1078.452,4370,Li-ion
2023-04-14 13:20:58.056,3.916,1896,7.42474,26,40.7,1082.584,4370,Li-ion
2023-04-14 13:21:05.422,3.913,1880,7.35644,26,40.4,1086.716,4370,Li-ion
2023-04-14 13:21:12.801,3.91,1850,7.2335,26,40.1,1094.98,4370,Li-ion
2023-04-14 13:21:20.165,3.91,1857,7.26087,26,40.1,1094.98,4370,Li-ion
2023-04-14 13:21:27.527,3.912,1855,7.25676,26,39.9,1099.112,4370,Li-ion
2023-04-14 13:21:34.883,3.908,1840,7.19072,26,39.8,1103.244,4370,Li-ion
2023-04-14 13:21:42.291,3.908,1832,7.15946,26,39.8,1103.244,4370,Li-ion
2023-04-14 13:21:49.652,3.91,1851,7.23741,27,39.6,1107.376,4370,Li-ion
2023-04-14 13:21:56.977,3.91,1820,7.1162,27,39.5,1115.64,4370,Li-ion
2023-04-14 13:22:04.339,3.979,4567,18.1721,27,39.4,1119.772,4370,Li-ion
2023-04-14 13:22:11.711,3.979,4798,19.0912,27,39.4,1119.772,4370,Li-ion
2023-04-14 13:22:19.027,4.05,4899,19.84095,27,39.5,1123.904,4370,Li-ion
2023-04-14 13:22:26.408,4.049,4262,17.2568,27,39.8,1140.432,4370,Li-ion
2023-04-14 13:22:33.835,4.049,4833,19.5688,27,39.8,1140.432,4370,Li-ion
2023-04-14 13:22:41.295,4.054,4797,19.447,28,40.1,1152.828,4370,Li-ion
2023-04-14 13:22:48.749,4.063,4874,19.8031,28,40.5,1165.224,4370,Li-ion
2023-04-14 13:22:56.213,4.067,4852,19.7331,28,40.7,1177.62,4370,Li-ion
2023-04-14 13:23:03.710,4.067,4828,19.6355,28,40.7,1177.62,4370,Li-ion
2023-04-14 13:23:11.158,4.065,4914,19.97541,29,40.9,1194.148,4370,Li-ion
2023-04-14 13:23:18.608,4.065,4889,19.8738,29,41.1,1206.544,4370,Li-ion
2023-04-14 13:23:26.074,4.072,4700,19.1384,29,41.2,1223.072,4370,Li-ion
2023-04-14 13:23:33.557,4.072,4784,19.4804,29,41.2,1223.072,4370,Li-ion
2023-04-14 13:23:41.023,4.071,4463,18.1689,30,41.4,1235.468,4370,Li-ion
2023-04-14 13:23:48.404,4.069,4662,18.9697,30,41.5,1247.864,4370,Li-ion
2023-04-14 13:23:55.877,4.069,1787,7.271303,30,41.5,1247.864,4370,Li-ion
2023-04-14 13:24:03.347,3.936,1775,6.9864,30,41.4,1264.392,4370,Li-ion
2023-04-14 13:24:10.847,3.916,1775,6.9509,30,41.0,1268.524,4370,Li-ion
2023-04-14 13:24:18.312,3.922,1644,6.447768,31,40.7,1276.788,4370,Li-ion
2023-04-14 13:24:25.765,3.922,1794,7.036068,31,40.7,1276.788,4370,Li-ion
2023-04-14 13:24:33.229,3.922,1775,6.96155,31,40.4,1280.92,4370,Li-ion
2023-04-14 13:24:40.708,3.922,1800,7.0596,31,40.2,1285.052,4370,Li-ion
2023-04-14 13:24:48.150,3.922,1776,6.965472,31,40.2,1289.184,4370,Li-ion
2023-04-14 13:24:55.608,3.921,1788,7.010748,31,40.0,1289.184,4370,Li-ion
2023-04-14 13:25:03.049,3.921,1810,7.09701,31,39.9,1293.316,4370,Li-ion
2023-04-14 13:25:10.547,3.919,1763,6.909197,31,39.7,1301.58,4370,Li-ion
2023-04-14 13:25:18.033,3.919,1821,7.136499,31,39.7,1301.58,4370,Li-ion
2023-04-14 13:25:25.551,3.92,1808,7.08736,31,39.6,1305.712,4370,Li-ion
2023-04-14 13:25:33.053,3.922,1844,7.23217,31,39.5,1309.844,4370,Li-ion
2023-04-14 13:25:40.507,4.054,4709,19.0903,32,39.4,1313.976,4370,Li-ion
2023-04-14 13:25:47.987,4.054,4792,19.4268,32,39.4,1313.976,4370,Li-ion
2023-04-14 13:25:55.479,4.067,4843,19.6965,32,39.7,1322.24,4370,Li-ion
2023-04-14 13:26:02.970,4.067,4691,19.0783,32,40.0,1338.768,4370,Li-ion
2023-04-14 13:26:10.484,4.067,4662,18.9604,32,40.0,1338.768,4370,Li-ion
2023-04-14 13:26:17.971,4.07,4602,18.73014,33,40.2,1351.164,4370,Li-ion
2023-04-14 13:26:25.487,4.071,4630,18.84873,33,40.4,1363.56,4370,Li-ion
2023-04-14 13:26:32.945,4.071,4634,18.865,33,40.7,1380.088,4370,Li-ion
2023-04-14 13:26:40.413,4.071,4526,18.4253,33,40.7,1380.088,4370,Li-ion
2023-04-14 13:26:47.883,4.05,4459,18.05895,34,40.8,1392.484,4370,Li-ion
2023-04-14 13:26:55.351,4.068,4518,18.3792,34,41.0,1404.88,4370,Li-ion
2023-04-14 13:27:02.842,4.068,4447,18.0904,34,41.0,1417.276,4370,Li-ion
2023-04-14 13:27:10.329,4.068,4477,18.2124,34,41.0,1417.276,4370,Li-ion
2023-04-14 13:27:17.797,4.069,4419,17.9809,34,41.1,1429.672,4370,Li-ion
2023-04-14 13:27:25.257,4.071,4435,18.0549,35,41.2,1442.068,4370,Li-ion
2023-04-14 13:27:32.748,4.071,4425,18.0142,35,41.2,1442.068,4370,Li-ion
2023-04-14 13:27:40.244,4.066,4367,17.7562,35,41.3,1458.596,4370,Li-ion
2023-04-14 13:27:47.741,4.069,4327,17.6066,35,41.4,1470.992,4370,Li-ion
2023-04-14 13:27:55.219,4.07,4398,17.89986,36,41.4,1483.388,4370,Li-ion
2023-04-14 13:28:02.670,4.07,4267,17.3667,36,41.4,1483.388,4370,Li-ion
2023-04-14 13:28:10.126,4.071,1665,6.77821,36,41.5,1495.784,4370,Li-ion
2023-04-14 13:28:17.587,3.974,2121,8.42885,36,41.5,1508.18,4370,Li-ion
2023-04-14 13:28:25.069,3.967,1957,7.76342,36,41.2,1516.444,4370,Li-ion
2023-04-14 13:28:32.542,3.967,2154,8.544918,36,41.2,1516.444,4370,Li-ion
2023-04-14 13:28:40.042,3.965,2147,8.51285,37,40.9,1520.576,4370,Li-ion
2023-04-14 13:28:47.539,3.958,2115,8.37117,37,40.7,1528.84,4370,Li-ion
2023-04-14 13:28:55.014,3.958,2128,8.422624,37,40.7,1528.84,4370,Li-ion
2023-04-14 13:29:02.493,3.959,2075,8.21493,37,40.4,1532.972,4370,Li-ion
2023-04-14 13:29:09.946,3.961,2155,8.535955,37,40.3,1541.236,4370,Li-ion
2023-04-14 13:29:17.358,3.917,2161,8.464637,37,40.1,1545.368,4370,Li-ion
2023-04-14 13:29:24.853,3.917,2109,8.26095,37,40.1,1545.368,4370,Li-ion
2023-04-14 13:29:32.330,3.939,2126,8.374314,37,40.0,1553.632,4370,Li-ion
2023-04-14 13:29:39.793,3.961,2153,8.528033,37,39.9,1557.764,4370,Li-ion
2023-04-14 13:29:47.255,3.961,2145,8.496345,38,39.8,1566.028,4370,Li-ion
2023-04-14 13:29:54.718,3.961,2010,7.96161,38,39.8,1566.028,4370,Li-ion
2023-04-14 13:30:02.229,3.961,1994,7.89823,38,39.7,1570.16,4370,Li-ion
2023-04-14 13:30:09.699,3.961,2094,8.294334,38,39.6,1578.424,4370,Li-ion
2023-04-14 13:30:17.164,3.961,2142,8.48446,38,39.6,1578.424,4370,Li-ion
2023-04-14 13:30:24.645,3.961,2160,8.55576,38,39.6,1582.556,4370,Li-ion
2023-04-14 13:30:32.089,3.961,3435,13.606,38,39.5,1590.82,4370,Li-ion
2023-04-14 13:30:39.569,4.074,4482,18.2597,38,39.5,1594.952,4370,Li-ion
2023-04-14 13:30:47.025,4.074,4350,17.7219,38,39.5,1594.952,4370,Li-ion
2023-04-14 13:30:54.510,4.071,4253,17.314,39,39.8,1607.348,4370,Li-ion
2023-04-14 13:31:02.010,4.069,3958,16.1051,39,40.0,1619.744,4370,Li-ion
2023-04-14 13:31:09.493,4.069,4045,16.4591,39,40.0,1632.14,4370,Li-ion
2023-04-14 13:31:16.968,4.071,4059,16.5242,39,40.1,1632.14,4370,Li-ion
2023-04-14 13:31:24.436,4.069,3974,16.1702,40,40.2,1640.404,4370,Li-ion
2023-04-14 13:31:31.914,4.066,4017,16.3331,40,40.3,1652.8,4370,Li-ion
2023-04-14 13:31:39.401,4.066,3993,16.2355,40,40.3,1652.8,4370,Li-ion
2023-04-14 13:31:46.900,4.069,3954,16.0888,40,40.4,1665.196,4370,Li-ion
2023-04-14 13:31:54.364,4.069,3868,15.7389,40,40.4,1677.592,4370,Li-ion
2023-04-14 13:32:01.828,4.068,3928,15.9791,41,40.5,1689.988,4370,Li-ion
2023-04-14 13:32:09.314,4.068,3904,15.8815,41,40.5,1689.988,4370,Li-ion
2023-04-14 13:32:16.783,4.071,3937,16.0275,41,40.5,1698.252,4370,Li-ion
2023-04-14 13:32:24.251,4.072,3897,15.8686,41,40.6,1710.648,4370,Li-ion
2023-04-14 13:32:31.720,4.072,3859,15.7138,41,40.6,1710.648,4370,Li-ion
2023-04-14 13:32:39.211,4.075,3791,15.4483,41,40.6,1723.044,4370,Li-ion
2023-04-14 13:32:46.644,4.075,3939,16.0514,42,40.6,1731.308,4370,Li-ion
2023-04-14 13:32:54.125,4.077,3770,15.37029,42,40.7,1743.704,4370,Li-ion
2023-04-14 13:33:01.576,4.077,3986,16.2509,42,40.7,1743.704,4370,Li-ion
2023-04-14 13:33:09.023,4.075,3949,16.0922,42,40.7,1756.1,4370,Li-ion
2023-04-14 13:33:16.480,4.079,3915,15.9693,43,40.8,1768.496,4370,Li-ion
2023-04-14 13:33:23.942,4.081,3830,15.63023,43,40.8,1776.76,4370,Li-ion
2023-04-14 13:33:31.425,4.081,3941,16.0832,43,40.8,1776.76,4370,Li-ion
2023-04-14 13:33:38.863,4.081,3956,16.1444,43,40.9,1789.156,4370,Li-ion
2023-04-14 13:33:46.302,4.079,3967,16.1814,43,40.9,1801.552,4370,Li-ion
2023-04-14 13:33:53.780,4.079,3979,16.2303,43,40.9,1801.552,4370,Li-ion
2023-04-14 13:34:01.253,4.086,3952,16.1479,44,41.0,1813.948,4370,Li-ion
2023-04-14 13:34:08.742,4.085,3957,16.1643,44,41.0,1822.212,4370,Li-ion
2023-04-14 13:34:16.204,4.089,3900,15.9471,44,41.0,1834.608,4370,Li-ion
2023-04-14 13:34:23.724,4.089,3928,16.0616,44,41.0,1834.608,4370,Li-ion
2023-04-14 13:34:31.189,4.088,3966,16.213,45,41.1,1847.004,4370,Li-ion
2023-04-14 13:34:38.685,4.09,3868,15.82012,45,41.1,1859.4,4370,Li-ion
2023-04-14 13:34:46.140,4.09,3919,16.02871,45,41.2,1867.664,4370,Li-ion
2023-04-14 13:34:53.632,4.09,4004,16.37636,45,41.2,1867.664,4370,Li-ion
2023-04-14 13:35:01.079,4.085,3988,16.29098,45,41.2,1880.06,4370,Li-ion
2023-04-14 13:35:08.565,4.095,3914,16.0278,46,41.2,1892.456,4370,Li-ion
2023-04-14 13:35:16.065,4.095,3865,15.8272,46,41.2,1892.456,4370,Li-ion
2023-04-14 13:35:23.547,4.095,3902,15.97869,46,41.3,1904.852,4370,Li-ion
2023-04-14 13:35:31.031,4.095,3969,16.2531,46,41.3,1913.116,4370,Li-ion
2023-04-14 13:35:38.493,4.097,3934,16.1176,46,41.4,1925.512,4370,Li-ion
2023-04-14 13:35:45.820,4.097,3290,13.47913,46,41.4,1925.512,4370,Li-ion
2023-04-14 13:35:53.177,4.085,3225,13.1741,47,41.4,1937.908,4370,Li-ion
2023-04-14 13:36:00.585,4.084,1618,6.607912,47,41.6,1946.172,4370,Li-ion
2023-04-14 13:36:07.855,4.084,1840,7.51456,47,41.6,1946.172,4370,Li-ion
2023-04-14 13:36:15.146,3.998,1875,7.49625,47,41.7,1954.436,4370,Li-ion
2023-04-14 13:36:22.437,4.001,1341,5.365341,47,41.6,1962.7,4370,Li-ion
2023-04-14 13:36:29.891,4.0,1931,7.724,47,41.4,1966.832,4370,Li-ion
2023-04-14 13:36:37.403,4.0,1896,7.584,47,41.4,1966.832,4370,Li-ion
2023-04-14 13:36:44.870,4.0,1911,7.644,47,41.3,1970.964,4370,Li-ion
2023-04-14 13:36:52.348,4.0,1915,7.66,48,41.1,1979.228,4370,Li-ion
2023-04-14 13:36:59.815,4.001,1871,7.485871,48,41.0,1983.36,4370,Li-ion
2023-04-14 13:37:07.279,4.001,1778,7.11378,48,41.0,1983.36,4370,Li-ion
2023-04-14 13:37:14.737,3.999,1943,7.770057,48,40.8,1987.492,4370,Li-ion
2023-04-14 13:37:22.067,3.995,1885,7.530575,48,40.7,1995.756,4370,Li-ion
2023-04-14 13:37:29.434,3.995,1902,7.59849,48,40.7,1995.756,4370,Li-ion
2023-04-14 13:37:36.939,4.001,1950,7.80195,48,40.5,1999.888,4370,Li-ion
2023-04-14 13:37:44.404,3.999,1905,7.618095,48,40.4,2004.02,4370,Li-ion
2023-04-14 13:37:51.879,3.995,1834,7.32683,48,40.3,2008.152,4370,Li-ion
2023-04-14 13:37:59.369,3.995,1897,7.578515,48,40.3,2008.152,4370,Li-ion
2023-04-14 13:38:06.906,4.002,1795,7.18359,48,40.2,2016.416,4370,Li-ion
2023-04-14 13:38:14.388,4.001,1951,7.80595,49,40.0,2020.548,4370,Li-ion
2023-04-14 13:38:21.874,4.001,1927,7.709927,49,40.0,2020.548,4370,Li-ion
2023-04-14 13:38:29.338,4.002,1904,7.61981,49,40.0,2024.68,4370,Li-ion
2023-04-14 13:38:36.752,4.002,1934,7.73987,49,39.9,2032.944,4370,Li-ion
2023-04-14 13:38:44.214,4.005,1953,7.821765,49,39.8,2037.076,4370,Li-ion
2023-04-14 13:38:51.684,4.005,1916,7.67358,49,39.8,2037.076,4370,Li-ion
2023-04-14 13:38:59.147,4.005,1955,7.829775,49,39.8,2041.208,4370,Li-ion
2023-04-14 13:39:06.609,4.006,1914,7.667484,49,39.7,2049.472,4370,Li-ion
2023-04-14 13:39:14.083,4.007,1852,7.420964,49,39.6,2053.604,4370,Li-ion
2023-04-14 13:39:21.566,4.007,1929,7.7295,49,39.6,2053.604,4370,Li-ion
2023-04-14 13:39:29.040,4.006,1897,7.599382,50,39.6,2057.736,4370,Li-ion
2023-04-14 13:39:36.503,4.008,1912,7.663296,50,39.5,2066.0,4370,Li-ion
2023-04-14 13:39:43.978,4.008,2792,11.1903,50,39.5,2066.0,4370,Li-ion
2023-04-14 13:39:51.461,4.05,3956,16.0218,50,39.4,2070.132,4370,Li-ion
2023-04-14 13:39:58.929,4.105,3969,16.2927,50,39.5,2074.264,4370,Li-ion
2023-04-14 13:40:06.401,4.111,3926,16.1398,50,39.7,2086.66,4370,Li-ion
2023-04-14 13:40:13.857,4.111,3919,16.111,50,39.7,2086.66,4370,Li-ion
2023-04-14 13:40:21.343,4.115,3987,16.4065,51,39.8,2099.056,4370,Li-ion
2023-04-14 13:40:28.842,4.12,4009,16.5171,51,39.9,2107.32,4370,Li-ion
2023-04-14 13:40:36.329,4.12,3603,14.8444,51,40.0,2119.716,4370,Li-ion
2023-04-14 13:40:43.809,4.12,3915,16.1298,51,40.0,2119.716,4370,Li-ion
2023-04-14 13:40:51.284,4.114,3951,16.2544,51,40.1,2132.112,4370,Li-ion
2023-04-14 13:40:58.754,4.127,3884,16.0293,52,40.2,2144.508,4370,Li-ion
2023-04-14 13:41:06.226,4.127,3941,16.2645,52,40.2,2144.508,4370,Li-ion
2023-04-14 13:41:13.687,4.129,3926,16.2105,52,40.3,2152.772,4370,Li-ion
2023-04-14 13:41:21.165,4.13,3977,16.42501,52,40.4,2165.168,4370,Li-ion
2023-04-14 13:41:28.746,4.134,3932,16.2549,53,40.5,2177.564,4370,Li-ion
2023-04-14 13:41:36.230,4.134,3936,16.2714,53,40.5,2177.564,4370,Li-ion
2023-04-14 13:41:43.694,4.131,3936,16.2596,53,40.6,2189.96,4370,Li-ion
2023-04-14 13:41:51.157,4.137,3925,16.2377,53,40.6,2198.224,4370,Li-ion
2023-04-14 13:41:58.636,4.137,3889,16.0888,53,40.7,2210.62,4370,Li-ion
2023-04-14 13:42:06.133,4.137,3953,16.3536,53,40.7,2210.62,4370,Li-ion
2023-04-14 13:42:13.618,4.141,3990,16.52259,54,40.7,2223.016,4370,Li-ion
2023-04-14 13:42:21.089,4.141,3874,16.0422,54,40.8,2235.412,4370,Li-ion
2023-04-14 13:42:28.546,4.141,3902,16.1582,54,40.8,2235.412,4370,Li-ion
2023-04-14 13:42:36.032,4.144,3905,16.18232,54,40.9,2243.676,4370,Li-ion
2023-04-14 13:42:43.481,4.146,3976,16.4845,54,40.9,2256.072,4370,Li-ion
2023-04-14 13:42:50.963,4.147,3894,16.1484,55,41.0,2268.468,4370,Li-ion
2023-04-14 13:42:58.427,4.147,3971,16.4677,55,41.0,2268.468,4370,Li-ion
2023-04-14 13:43:05.925,4.15,3861,16.02315,55,41.0,2276.732,4370,Li-ion
2023-04-14 13:43:13.395,4.15,3932,16.3178,55,41.0,2289.128,4370,Li-ion
2023-04-14 13:43:20.905,4.15,3912,16.2348,55,41.0,2301.524,4370,Li-ion
2023-04-14 13:43:28.394,4.152,3858,16.0184,56,41.1,2301.524,4370,Li-ion
2023-04-14 13:43:35.900,4.153,3923,16.2922,56,41.1,2313.92,4370,Li-ion
2023-04-14 13:43:43.396,4.156,3947,16.4037,56,41.1,2322.184,4370,Li-ion
2023-04-14 13:43:50.856,4.156,3930,16.33308,56,41.1,2322.184,4370,Li-ion
2023-04-14 13:43:58.401,4.159,3944,16.4031,56,41.2,2334.58,4370,Li-ion
2023-04-14 13:44:05.885,4.16,3932,16.3571,57,41.2,2346.976,4370,Li-ion
2023-04-14 13:44:13.322,4.132,3689,15.2429,57,41.3,2359.372,4370,Li-ion
2023-04-14 13:44:20.642,4.132,3693,15.2595,57,41.3,2359.372,4370,Li-ion
2023-04-14 13:44:28.012,4.161,3869,16.0989,57,41.3,2367.636,4370,Li-ion
2023-04-14 13:44:35.353,4.159,3879,16.1328,57,41.5,2380.032,4370,Li-ion
2023-04-14 13:44:42.740,4.159,1759,7.315681,57,41.5,2380.032,4370,Li-ion
2023-04-14 13:44:50.189,4.077,1761,7.1796,58,41.6,2392.428,4370,Li-ion
2023-04-14 13:44:57.663,4.069,1885,7.670065,58,41.4,2400.692,4370,Li-ion
2023-04-14 13:45:05.180,4.069,1893,7.702617,58,41.2,2404.824,4370,Li-ion
2023-04-14 13:45:12.656,4.069,1920,7.81248,58,41.2,2404.824,4370,Li-ion
2023-04-14 13:45:20.145,4.058,1903,7.72237,58,41.0,2408.956,4370,Li-ion
2023-04-14 13:45:27.620,4.067,1793,7.292131,58,40.8,2417.22,4370,Li-ion
2023-04-14 13:45:35.069,4.068,1812,7.37122,58,40.6,2421.352,4370,Li-ion
2023-04-14 13:45:42.508,4.068,1923,7.82276,58,40.6,2421.352,4370,Li-ion
2023-04-14 13:45:49.942,4.07,1827,7.43589,58,40.5,2425.484,4370,Li-ion
2023-04-14 13:45:57.417,4.067,1948,7.922516,59,40.3,2429.616,4370,Li-ion
2023-04-14 13:46:04.897,4.067,1930,7.84931,59,40.3,2429.616,4370,Li-ion
2023-04-14 13:46:12.375,4.067,1900,7.7273,59,40.2,2437.88,4370,Li-ion
2023-04-14 13:46:19.858,4.07,1944,7.91208,59,40.1,2442.012,4370,Li-ion
2023-04-14 13:46:27.321,4.059,1375,5.581125,59,40.0,2446.144,4370,Li-ion
2023-04-14 13:46:34.683,4.059,1880,7.63092,59,40.0,2446.144,4370,Li-ion
2023-04-14 13:46:42.170,4.063,1931,7.84565,59,39.9,2454.408,4370,Li-ion
2023-04-14 13:46:49.648,4.072,1985,8.08292,59,39.9,2458.54,4370,Li-ion
2023-04-14 13:46:57.170,4.072,1871,7.618712,59,39.9,2458.54,4370,Li-ion
2023-04-14 13:47:04.604,4.071,3455,14.0653,59,39.5,2462.672,4370,Li-ion
2023-04-14 13:47:12.074,4.164,4026,16.7643,59,38.5,2470.936,4370,Li-ion
2023-04-14 13:47:19.543,4.176,4007,16.7332,60,38.6,2475.068,4370,Li-ion
2023-04-14 13:47:27.017,4.176,4030,16.82928,60,38.6,2475.068,4370,Li-ion
2023-04-14 13:47:34.511,4.183,4015,16.7947,60,38.8,2487.464,4370,Li-ion
2023-04-14 13:47:42.003,4.19,4037,16.91503,60,39.0,2499.86,4370,Li-ion
2023-04-14 13:47:49.468,4.184,4062,16.9954,61,39.2,2512.256,4370,Li-ion
2023-04-14 13:47:56.946,4.184,3992,16.7025,61,39.2,2512.256,4370,Li-ion
2023-04-14 13:48:04.425,4.198,4025,16.897,61,39.4,2524.652,4370,Li-ion
2023-04-14 13:48:11.905,4.198,4020,16.87596,61,39.5,2532.916,4370,Li-ion
2023-04-14 13:48:19.253,4.198,3960,16.6241,61,39.5,2532.916,4370,Li-ion
2023-04-14 13:48:26.813,4.193,3929,16.4743,61,39.6,2545.312,4370,Li-ion
2023-04-14 13:48:34.278,4.194,3597,15.0858,62,39.8,2557.708,4370,Li-ion
2023-04-14 13:48:41.728,4.205,3883,16.328,62,40.0,2565.972,4370,Li-ion
2023-04-14 13:48:49.017,4.205,3740,15.7267,62,40.0,2565.972,4370,Li-ion
2023-04-14 13:48:56.351,4.205,3207,13.4854,62,40.1,2578.368,4370,Li-ion
2023-04-14 13:49:03.721,4.201,3901,16.3881,62,40.3,2590.764,4370,Li-ion
2023-04-14 13:49:11.169,4.201,3893,16.3545,63,40.3,2599.028,4370,Li-ion
2023-04-14 13:49:18.657,4.203,3750,15.76125,63,40.6,2599.028,4370,Li-ion
2023-04-14 13:49:26.012,4.214,3884,16.3672,63,40.7,2611.424,4370,Li-ion
2023-04-14 13:49:33.599,4.195,3953,16.5828,63,40.9,2623.82,4370,Li-ion
2023-04-14 13:49:40.917,4.195,4046,16.973,63,40.9,2623.82,4370,Li-ion
2023-04-14 13:49:48.220,4.217,3537,14.9155,64,41.0,2632.084,4370,Li-ion
2023-04-14 13:49:55.374,4.209,3911,16.4614,64,41.1,2644.48,4370,Li-ion
2023-04-14 13:50:02.535,4.209,3980,16.75182,64,41.1,2644.48,4370,Li-ion
2023-04-14 13:50:09.970,4.221,3680,15.53328,64,41.2,2656.876,4370,Li-ion
2023-04-14 13:50:17.249,4.214,3890,16.3925,64,41.3,2665.14,4370,Li-ion
2023-04-14 13:50:24.578,4.217,3762,15.8644,65,41.5,2677.536,4370,Li-ion
2023-04-14 13:50:31.742,4.217,1796,7.573732,65,41.5,2677.536,4370,Li-ion
2023-04-14 13:50:38.925,4.13,1829,7.55377,65,41.6,2685.8,4370,Li-ion
2023-04-14 13:50:46.239,4.098,1842,7.548516,65,41.4,2694.064,4370,Li-ion
2023-04-14 13:50:53.511,4.098,1236,5.065128,65,41.4,2694.064,4370,Li-ion
2023-04-14 13:51:00.885,4.084,1567,6.39963,65,41.3,2698.196,4370,Li-ion
2023-04-14 13:51:08.280,4.122,1850,7.6257,65,41.2,2702.328,4370,Li-ion
2023-04-14 13:51:15.472,4.1,1504,6.1664,65,41.1,2710.592,4370,Li-ion
2023-04-14 13:51:23.323,4.1,967,3.9647,65,41.1,2710.592,4370,Li-ion
2023-04-14 13:51:30.738,4.076,1557,6.34633,65,41.1,2714.724,4370,Li-ion
2023-04-14 13:51:38.155,4.12,1849,7.61788,65,41.1,2718.856,4370,Li-ion
2023-04-14 13:51:46.036,4.112,1341,5.514192,66,41.1,2722.988,4370,Li-ion
2023-04-14 13:51:53.329,4.112,952,3.914624,66,41.1,2722.988,4370,Li-ion
2023-04-14 13:52:00.654,4.097,1740,7.12878,66,41.0,2727.12,4370,Li-ion
2023-04-14 13:52:08.081,4.123,1932,7.965636,66,41.0,2731.252,4370,Li-ion
2023-04-14 13:52:15.540,4.123,1930,7.95739,66,41.0,2731.252,4370,Li-ion
2023-04-14 13:52:23.012,4.127,1908,7.87432,66,40.9,2735.384,4370,Li-ion
2023-04-14 13:52:30.468,4.125,1960,8.085,66,40.8,2739.516,4370,Li-ion
2023-04-14 13:52:37.875,4.122,1339,5.519358,66,40.6,2747.78,4370,Li-ion
2023-04-14 13:52:45.146,4.122,1649,6.797178,66,40.6,2747.78,4370,Li-ion
2023-04-14 13:52:52.461,4.089,1944,7.949016,66,40.5,2751.912,4370,Li-ion
2023-04-14 13:52:59.827,4.129,1942,8.01852,66,40.5,2756.044,4370,Li-ion
2023-04-14 13:53:07.132,4.129,1905,7.86574,66,40.5,2756.044,4370,Li-ion
2023-04-14 13:53:14.480,4.131,1947,8.04306,67,40.4,2760.176,4370,Li-ion
2023-04-14 13:53:21.779,4.135,1719,7.108065,67,40.2,2768.44,4370,Li-ion
2023-04-14 13:53:29.031,4.113,1770,7.28001,67,40.1,2772.572,4370,Li-ion
2023-04-14 13:53:36.330,4.113,1841,7.572033,67,40.1,2772.572,4370,Li-ion
2023-04-14 13:53:43.640,4.136,1679,6.944344,67,40.1,2776.704,4370,Li-ion
2023-04-14 13:53:50.916,4.132,1927,7.962364,67,40.0,2780.836,4370,Li-ion
2023-04-14 13:53:58.203,4.132,1608,6.644256,67,40.0,2780.836,4370,Li-ion
2023-04-14 13:54:05.902,4.129,1466,6.05311,67,40.0,2789.1,4370,Li-ion
2023-04-14 13:54:13.073,4.117,987,4.063479,67,39.9,2793.232,4370,Li-ion
2023-04-14 13:54:20.412,4.14,1923,7.96122,67,39.9,2797.364,4370,Li-ion
2023-04-14 13:54:27.786,4.14,1852,7.66728,67,39.9,2797.364,4370,Li-ion
2023-04-14 13:54:35.171,4.142,1791,7.41832,68,39.9,2801.496,4370,Li-ion
2023-04-14 13:54:42.528,4.144,1372,5.68557,68,39.8,2809.76,4370,Li-ion
2023-04-14 13:54:49.773,4.144,1782,7.384608,68,39.8,2809.76,4370,Li-ion
2023-04-14 13:54:57.065,4.135,1917,7.92679,68,39.7,2813.892,4370,Li-ion
2023-04-14 13:55:04.433,4.141,1914,7.92587,68,39.6,2818.024,4370,Li-ion
2023-04-14 13:55:11.779,4.148,1958,8.121784,68,39.5,2826.288,4370,Li-ion
2023-04-14 13:55:19.194,4.148,3901,16.1813,68,39.5,2826.288,4370,Li-ion
2023-04-14 13:55:26.566,4.227,3928,16.6037,68,39.5,2830.42,4370,Li-ion
2023-04-14 13:55:33.943,4.25,3938,16.7365,69,39.6,2838.684,4370,Li-ion
2023-04-14 13:55:41.325,4.25,3960,16.83,69,39.6,2838.684,4370,Li-ion
2023-04-14 13:55:48.704,4.257,3884,16.5342,69,39.7,2851.08,4370,Li-ion
2023-04-14 13:55:56.077,4.254,3901,16.5949,69,39.9,2859.344,4370,Li-ion
2023-04-14 13:56:03.472,4.268,3718,15.8684,69,39.9,2871.74,4370,Li-ion
2023-04-14 13:56:10.845,4.268,3887,16.5897,69,39.9,2871.74,4370,Li-ion
2023-04-14 13:56:18.224,4.271,3750,16.01625,70,40.0,2884.136,4370,Li-ion
2023-04-14 13:56:25.617,4.269,3834,16.3673,70,40.1,2896.532,4370,Li-ion
2023-04-14 13:56:32.962,4.269,3789,16.1752,70,40.1,2896.532,4370,Li-ion
2023-04-14 13:56:40.324,4.27,3696,15.78192,70,40.1,2904.796,4370,Li-ion
2023-04-14 13:56:47.681,4.271,3631,15.508,70,40.1,2917.192,4370,Li-ion
2023-04-14 13:56:55.040,4.269,3564,15.2147,71,40.2,2929.588,4370,Li-ion
2023-04-14 13:57:02.408,4.269,3549,15.1507,71,40.2,2929.588,4370,Li-ion
2023-04-14 13:57:09.764,4.27,3575,15.26525,71,40.2,2937.852,4370,Li-ion
2023-04-14 13:57:17.103,4.266,3500,14.931,71,40.2,2950.248,4370,Li-ion
2023-04-14 13:57:24.463,4.266,3547,15.1315,71,40.2,2950.248,4370,Li-ion
2023-04-14 13:57:31.819,4.268,3455,14.74594,71,40.2,2958.512,4370,Li-ion
2023-04-14 13:57:39.190,4.27,3364,14.3643,72,40.2,2970.908,4370,Li-ion
2023-04-14 13:57:46.551,4.267,3308,14.1152,72,40.1,2979.172,4370,Li-ion
2023-04-14 13:57:53.915,4.267,3344,14.2688,72,40.1,2979.172,4370,Li-ion
2023-04-14 13:58:01.280,4.267,3402,14.5163,72,40.1,2987.436,4370,Li-ion
2023-04-14 13:58:08.626,4.268,3275,13.9777,72,40.1,2999.832,4370,Li-ion
2023-04-14 13:58:16.011,4.268,3309,14.1228,72,40.1,2999.832,4370,Li-ion
2023-04-14 13:58:23.369,4.269,3122,13.3278,73,40.1,3008.096,4370,Li-ion
2023-04-14 13:58:30.709,4.269,2993,12.7771,73,40.0,3016.36,4370,Li-ion
2023-04-14 13:58:38.025,4.269,3051,13.0247,73,40.0,3028.756,4370,Li-ion
2023-04-14 13:58:45.394,4.269,3116,13.3022,73,40.0,3028.756,4370,Li-ion
2023-04-14 13:58:52.765,4.265,2980,12.7097,73,40.0,3037.02,4370,Li-ion
2023-04-14 13:59:00.153,4.269,3077,13.1357,73,40.0,3045.284,4370,Li-ion
2023-04-14 13:59:07.507,4.269,3016,12.8753,73,40.0,3045.284,4370,Li-ion
2023-04-14 13:59:14.877,4.268,2956,12.6162,74,40.0,3053.548,4370,Li-ion
2023-04-14 13:59:22.245,4.269,2980,12.72162,74,40.0,3061.812,4370,Li-ion
2023-04-14 13:59:29.612,4.268,2973,12.6888,74,40.0,3070.076,4370,Li-ion
2023-04-14 13:59:36.955,4.268,3132,13.3674,74,40.0,3070.076,4370,Li-ion
2023-04-14 13:59:44.314,4.278,3124,13.3645,74,39.9,3078.34,4370,Li-ion
2023-04-14 13:59:51.712,4.281,2890,12.37209,75,39.9,3086.604,4370,Li-ion
2023-04-14 13:59:59.081,4.281,3098,13.2625,75,39.9,3086.604,4370,Li-ion
2023-04-14 14:00:06.505,4.282,3115,13.33843,75,39.9,3099.0,4370,Li-ion
2023-04-14 14:00:13.868,4.286,3201,13.7195,75,39.9,3107.264,4370,Li-ion
2023-04-14 14:00:21.233,4.29,3154,13.53066,75,39.9,3115.528,4370,Li-ion
2023-04-14 14:00:28.633,4.29,3091,13.26039,75,39.9,3115.528,4370,Li-ion
2023-04-14 14:00:35.997,4.291,3130,13.43083,75,39.9,3123.792,4370,Li-ion
2023-04-14 14:00:43.348,4.291,3132,13.4394,76,39.9,3132.056,4370,Li-ion
2023-04-14 14:00:50.741,4.291,3145,13.4952,76,39.9,3132.056,4370,Li-ion
2023-04-14 14:00:58.088,4.292,3130,13.43396,76,39.8,3140.32,4370,Li-ion
2023-04-14 14:01:05.474,4.297,3114,13.3809,76,39.8,3152.716,4370,Li-ion
2023-04-14 14:01:12.830,4.3,3146,13.5278,76,39.8,3160.98,4370,Li-ion
2023-04-14 14:01:20.226,4.3,3175,13.6525,76,39.8,3160.98,4370,Li-ion
2023-04-14 14:01:27.601,4.301,2966,12.7568,76,39.8,3169.244,4370,Li-ion
2023-04-14 14:01:35.036,4.306,3004,12.9352,77,39.8,3177.508,4370,Li-ion
2023-04-14 14:01:42.372,4.306,3128,13.4692,77,39.8,3177.508,4370,Li-ion
2023-04-14 14:01:49.741,4.307,3121,13.4421,77,39.8,3185.772,4370,Li-ion
2023-04-14 14:01:57.110,4.31,3109,13.39979,77,39.8,3194.036,4370,Li-ion
2023-04-14 14:02:04.473,4.313,3116,13.4393,77,39.8,3202.3,4370,Li-ion
2023-04-14 14:02:11.833,4.313,3207,13.8318,77,39.8,3202.3,4370,Li-ion
2023-04-14 14:02:19.200,4.31,3149,13.57219,78,39.8,3214.696,4370,Li-ion
2023-04-14 14:02:26.567,4.319,3039,13.1254,78,39.8,3222.96,4370,Li-ion
2023-04-14 14:02:33.939,4.319,3129,13.5142,78,39.8,3222.96,4370,Li-ion
2023-04-14 14:02:41.295,4.32,3157,13.63824,78,39.8,3231.224,4370,Li-ion
2023-04-14 14:02:48.674,4.322,3087,13.342,78,39.7,3239.488,4370,Li-ion
2023-04-14 14:02:56.031,4.326,3102,13.4193,78,39.7,3247.752,4370,Li-ion
2023-04-14 14:03:03.422,4.326,3160,13.67016,78,39.7,3247.752,4370,Li-ion
2023-04-14 14:03:10.809,4.329,3127,13.5368,79,39.7,3260.148,4370,Li-ion
2023-04-14 14:03:18.151,4.333,3163,13.7053,79,39.7,3268.412,4370,Li-ion
2023-04-14 14:03:25.517,4.333,3179,13.7746,79,39.7,3268.412,4370,Li-ion
2023-04-14 14:03:32.874,4.332,3046,13.1953,79,39.7,3276.676,4370,Li-ion
2023-04-14 14:03:40.245,4.337,3153,13.6746,79,39.7,3284.94,4370,Li-ion
2023-04-14 14:03:47.605,4.339,3124,13.555,80,39.7,3293.204,4370,Li-ion
2023-04-14 14:03:54.982,4.339,3149,13.6635,80,39.7,3293.204,4370,Li-ion
2023-04-14 14:04:02.361,4.341,3022,13.1185,80,39.7,3305.6,4370,Li-ion
2023-04-14 14:04:09.718,4.345,3076,13.36522,80,39.6,3313.864,4370,Li-ion
2023-04-14 14:04:17.074,4.345,3108,13.50426,80,39.6,3313.864,4370,Li-ion
2023-04-14 14:04:24.443,4.347,3058,13.2931,80,39.6,3322.128,4370,Li-ion
2023-04-14 14:04:31.801,4.349,3130,13.61237,80,39.6,3330.392,4370,Li-ion
2023-04-14 14:04:39.155,4.35,3097,13.47195,81,39.6,3338.656,4370,Li-ion
2023-04-14 14:04:46.524,4.35,3150,13.7025,81,39.6,3338.656,4370,Li-ion
2023-04-14 14:04:53.929,4.355,3107,13.531,81,39.6,3351.052,4370,Li-ion
2023-04-14 14:05:01.264,4.357,3111,13.5546,81,39.6,3359.316,4370,Li-ion
2023-04-14 14:05:08.611,4.357,3101,13.5111,81,39.6,3359.316,4370,Li-ion
2023-04-14 14:05:15.936,4.359,3106,13.5391,81,39.6,3367.58,4370,Li-ion
2023-04-14 14:05:23.283,4.36,3150,13.734,81,39.6,3375.844,4370,Li-ion
2023-04-14 14:05:30.646,4.364,3174,13.8513,82,39.6,3384.108,4370,Li-ion
2023-04-14 14:05:38.001,4.364,3089,13.4804,82,39.6,3384.108,4370,Li-ion
2023-04-14 14:05:45.375,4.367,3108,13.5726,82,39.6,3392.372,4370,Li-ion
2023-04-14 14:05:52.732,4.37,3097,13.53389,82,39.6,3404.768,4370,Li-ion
2023-04-14 14:06:00.063,4.37,2601,11.36637,82,39.6,3404.768,4370,Li-ion
2023-04-14 14:06:07.398,4.349,2891,12.573,82,39.6,3413.032,4370,Li-ion
2023-04-14 14:06:14.752,4.373,3095,13.5344,83,39.6,3421.296,4370,Li-ion
2023-04-14 14:06:22.114,4.369,2970,12.97593,83,39.6,3429.56,4370,Li-ion
2023-04-14 14:06:29.485,4.369,3078,13.4478,83,39.6,3429.56,4370,Li-ion
2023-04-14 14:06:36.814,4.38,3130,13.7094,83,39.6,3437.824,4370,Li-ion
2023-04-14 14:06:44.214,4.384,3105,13.61232,83,39.6,3446.088,4370,Li-ion
2023-04-14 14:06:51.580,4.384,3173,13.9104,83,39.6,3446.088,4370,Li-ion
2023-04-14 14:06:58.944,4.385,3184,13.96184,83,39.6,3458.484,4370,Li-ion
2023-04-14 14:07:06.334,4.386,3113,13.6536,84,39.6,3466.748,4370,Li-ion
2023-04-14 14:07:13.704,4.391,3069,13.476,84,39.6,3475.012,4370,Li-ion
2023-04-14 14:07:21.105,4.391,3129,13.7394,84,39.6,3475.012,4370,Li-ion
2023-04-14 14:07:28.324,4.392,3137,13.7777,84,39.6,3483.276,4370,Li-ion
2023-04-14 14:07:35.643,4.395,3091,13.5849,84,39.6,3491.54,4370,Li-ion
2023-04-14 14:07:43.025,4.395,2777,12.2049,84,39.6,3491.54,4370,Li-ion
2023-04-14 14:07:50.339,4.365,2605,11.3708,85,39.6,3503.936,4370,Li-ion
2023-04-14 14:07:57.684,4.399,3119,13.7205,85,39.6,3512.2,4370,Li-ion
2023-04-14 14:08:05.077,4.403,3177,13.9883,85,39.6,3520.464,4370,Li-ion
2023-04-14 14:08:12.422,4.403,3107,13.6801,85,39.6,3520.464,4370,Li-ion
2023-04-14 14:08:19.809,4.406,3221,14.1917,85,39.6,3528.728,4370,Li-ion
2023-04-14 14:08:27.208,4.408,3143,13.8543,85,39.6,3536.992,4370,Li-ion
2023-04-14 14:08:34.577,4.408,3158,13.9205,85,39.6,3536.992,4370,Li-ion
2023-04-14 14:08:41.954,4.411,3227,14.2343,86,39.6,3545.256,4370,Li-ion
2023-04-14 14:08:49.304,4.415,3156,13.93374,86,39.6,3557.652,4370,Li-ion
2023-04-14 14:08:56.663,4.416,3094,13.6631,86,39.6,3565.916,4370,Li-ion
2023-04-14 14:09:04.024,4.416,3138,13.8574,86,39.6,3565.916,4370,Li-ion
2023-04-14 14:09:11.384,4.417,3056,13.4984,86,39.6,3574.18,4370,Li-ion
2023-04-14 14:09:18.725,4.418,3020,13.34236,86,39.6,3582.444,4370,Li-ion
2023-04-14 14:09:26.116,4.418,2990,13.20982,86,39.6,3582.444,4370,Li-ion
2023-04-14 14:09:33.482,4.417,2918,12.8888,87,39.5,3590.708,4370,Li-ion
2023-04-14 14:09:40.850,4.418,2795,12.34831,87,39.5,3598.972,4370,Li-ion
2023-04-14 14:09:48.242,4.414,2772,12.2356,87,39.5,3611.368,4370,Li-ion
2023-04-14 14:09:55.603,4.414,2794,12.3327,87,39.5,3611.368,4370,Li-ion
2023-04-14 14:10:02.974,4.414,2832,12.5004,87,39.5,3615.5,4370,Li-ion
2023-04-14 14:10:10.338,4.416,2797,12.3516,87,39.4,3623.764,4370,Li-ion
2023-04-14 14:10:17.660,4.416,2859,12.6253,87,39.4,3623.764,4370,Li-ion
2023-04-14 14:10:25.002,4.417,2837,12.531,88,39.4,3632.028,4370,Li-ion
2023-04-14 14:10:32.328,4.415,2665,11.766,88,39.4,3640.292,4370,Li-ion
2023-04-14 14:10:39.687,4.414,2593,11.4455,88,39.4,3648.556,4370,Li-ion
2023-04-14 14:10:47.054,4.414,2629,11.6044,88,39.4,3648.556,4370,Li-ion
2023-04-14 14:10:54.428,4.415,2682,11.84103,88,39.3,3656.82,4370,Li-ion
2023-04-14 14:11:01.757,4.417,2622,11.5814,88,39.3,3665.084,4370,Li-ion
2023-04-14 14:11:09.090,4.417,2445,10.7996,88,39.3,3665.084,4370,Li-ion
2023-04-14 14:11:16.441,4.417,2504,11.0602,89,39.2,3673.348,4370,Li-ion
2023-04-14 14:11:23.802,4.417,2449,10.8172,89,39.2,3681.612,4370,Li-ion
2023-04-14 14:11:31.193,4.411,2334,10.2953,89,39.2,3685.744,4370,Li-ion
2023-04-14 14:11:38.561,4.411,2470,10.89517,89,39.2,3685.744,4370,Li-ion
2023-04-14 14:11:45.914,4.413,2348,10.3617,89,39.1,3694.008,4370,Li-ion
2023-04-14 14:11:53.289,4.415,2448,10.80792,89,39.1,3702.272,4370,Li-ion
2023-04-14 14:12:00.677,4.415,2375,10.4856,89,39.1,3702.272,4370,Li-ion
2023-04-14 14:12:08.037,4.417,2348,10.3711,89,39.0,3710.536,4370,Li-ion
2023-04-14 14:12:15.394,4.415,2348,10.36642,90,39.0,3714.668,4370,Li-ion
2023-04-14 14:12:22.743,4.417,2415,10.6671,90,38.9,3722.932,4370,Li-ion
2023-04-14 14:12:30.109,4.417,2368,10.4595,90,38.9,3722.932,4370,Li-ion
2023-04-14 14:12:37.474,4.415,2323,10.256,90,38.9,3731.196,4370,Li-ion
2023-04-14 14:12:44.845,4.417,2272,10.0354,90,38.9,3735.328,4370,Li-ion
2023-04-14 14:12:52.222,4.417,2377,10.4992,90,38.9,3735.328,4370,Li-ion
2023-04-14 14:12:59.587,4.417,2265,10.0045,90,38.8,3743.592,4370,Li-ion
2023-04-14 14:13:06.933,4.417,2200,9.7174,90,38.8,3747.724,4370,Li-ion
2023-04-14 14:13:14.320,4.417,2116,9.346372,91,38.7,3755.988,4370,Li-ion
2023-04-14 14:13:21.706,4.417,2016,8.904672,91,38.7,3755.988,4370,Li-ion
2023-04-14 14:13:29.147,4.412,2074,9.150488,91,38.7,3760.12,4370,Li-ion
2023-04-14 14:13:36.512,4.413,2060,9.09078,91,38.7,3768.384,4370,Li-ion
2023-04-14 14:13:43.888,4.413,2109,9.307017,91,38.7,3768.384,4370,Li-ion
2023-04-14 14:13:51.236,4.416,2067,9.12787,91,38.6,3772.516,4370,Li-ion
2023-04-14 14:13:58.592,4.416,1967,8.686272,91,38.6,3780.78,4370,Li-ion
2023-04-14 14:14:05.946,4.417,2007,8.864919,91,38.5,3784.912,4370,Li-ion
2023-04-14 14:14:13.342,4.417,2065,9.121105,91,38.5,3784.912,4370,Li-ion
2023-04-14 14:14:20.618,4.416,1674,7.39238,91,38.5,3793.176,4370,Li-ion
2023-04-14 14:14:28.017,4.4,1609,7.0796,92,38.5,3797.308,4370,Li-ion
2023-04-14 14:14:35.866,4.4,1712,7.5328,92,38.5,3801.44,4370,Li-ion
2023-04-14 14:14:45.146,4.397,1427,6.27452,92,38.6,3801.44,4370,Li-ion
2023-04-14 14:14:53.440,4.387,1508,6.6156,92,38.9,3805.572,4370,Li-ion
2023-04-14 14:15:00.956,4.395,1663,7.30888,92,39.3,3813.836,4370,Li-ion
2023-04-14 14:15:08.218,4.393,1647,7.235271,92,39.5,3817.968,4370,Li-ion
2023-04-14 14:15:15.499,4.393,1718,7.54717,92,39.5,3817.968,4370,Li-ion
2023-04-14 14:15:22.795,4.415,1723,7.607045,92,39.7,3822.1,4370,Li-ion
2023-04-14 14:15:30.169,4.397,1628,7.158316,92,39.9,3826.232,4370,Li-ion
2023-04-14 14:15:37.657,4.415,1921,8.481215,92,39.9,3830.364,4370,Li-ion
2023-04-14 14:15:45.112,4.415,1814,8.00881,92,39.9,3830.364,4370,Li-ion
2023-04-14 14:15:52.581,4.416,1860,8.21376,93,39.9,3834.496,4370,Li-ion
2023-04-14 14:16:00.070,4.417,1853,8.184701,93,39.8,3842.76,4370,Li-ion
2023-04-14 14:16:07.544,4.417,1934,8.542478,93,39.8,3842.76,4370,Li-ion
2023-04-14 14:16:14.968,4.418,1812,8.005416,93,39.7,3846.892,4370,Li-ion
2023-04-14 14:17:17.143,4.401,1404,6.179,93,38.8,3867.552,4370,Li-ion
2023-04-14 14:18:27.093,4.4,1319,5.8036,94,38.3,3904.74,4370,Li-ion
2023-04-14 14:18:55.115,4.401,1256,5.527656,94,38.1,3913.004,4370,Li-ion
2023-04-14 14:19:17.377,4.4,1238,5.4472,95,37.9,3917.136,4370,Li-ion
2023-04-14 14:19:24.848,4.4,1161,5.1084,95,37.9,3925.4,4370,Li-ion
2023-04-14 14:19:32.512,4.4,1215,5.346,95,37.9,3925.4,4370,Li-ion
2023-04-14 14:19:39.779,4.402,1222,5.379244,95,38.2,3929.532,4370,Li-ion
2023-04-14 14:19:51.163,4.402,1217,5.35723,95,38.5,3933.664,4370,Li-ion
2023-04-14 14:20:29.091,4.401,1145,5.039145,95,38.3,3946.06,4370,Li-ion
2023-04-14 14:21:46.113,4.399,1066,4.68933,95,37.8,3954.324,4370,Li-ion
2023-04-14 14:22:49.231,4.401,1002,4.409802,96,37.1,3983.248,4370,Li-ion
2023-04-14 14:22:56.519,4.401,989,4.352589,96,37.1,3983.248,4370,Li-ion
2023-04-14 14:23:03.761,4.401,977,4.299777,96,37.1,3991.512,4370,Li-ion
2023-04-14 14:23:11.031,4.403,954,4.20046,96,37.2,3995.644,4370,Li-ion
2023-04-14 14:23:18.372,4.401,960,4.22496,96,37.4,3995.644,4370,Li-ion
2023-04-14 14:23:25.679,4.401,961,4.229361,96,37.4,3995.644,4370,Li-ion
2023-04-14 14:23:32.955,4.398,961,4.22648,96,37.6,3999.776,4370,Li-ion
2023-04-14 14:23:40.179,4.401,936,4.119336,96,37.7,3999.776,4370,Li-ion
2023-04-14 14:23:47.431,4.401,933,4.106133,96,37.7,3999.776,4370,Li-ion
2023-04-14 14:23:54.709,4.402,917,4.036634,97,37.8,4003.908,4370,Li-ion
2023-04-14 14:24:01.959,4.4,910,4.004,97,37.9,4008.04,4370,Li-ion
2023-04-14 14:24:09.200,4.4,907,3.9908,97,38.0,4008.04,4370,Li-ion
2023-04-14 14:24:16.414,4.4,918,4.0392,97,38.0,4008.04,4370,Li-ion
2023-04-14 14:24:23.683,4.4,910,4.004,97,38.0,4012.172,4370,Li-ion
2023-04-14 14:24:30.915,4.401,907,3.991707,97,38.0,4016.304,4370,Li-ion
2023-04-14 14:24:38.361,4.401,152,0.668952,97,38.0,4016.304,4370,Li-ion
2023-04-14 14:24:45.820,4.332,746,3.231672,97,37.8,4016.304,4370,Li-ion
2023-04-14 14:24:53.227,4.337,928,4.024736,97,37.9,4020.436,4370,Li-ion
2023-04-14 14:25:00.649,4.392,938,4.119696,97,38.3,4020.436,4370,Li-ion
2023-04-14 14:25:08.128,4.392,947,4.159224,97,38.3,4020.436,4370,Li-ion
2023-04-14 14:25:15.474,4.391,646,2.836586,97,38.3,4020.436,4370,Li-ion
2023-04-14 14:25:22.881,4.399,986,4.337414,97,38.0,4020.436,4370,Li-ion
2023-04-14 14:25:30.387,4.399,950,4.17905,97,37.9,4024.568,4370,Li-ion
2023-04-14 14:25:37.733,4.399,931,4.09547,97,37.9,4024.568,4370,Li-ion
2023-04-14 14:25:45.000,4.389,926,4.06421,97,37.7,4028.7,4370,Li-ion
2023-04-14 14:26:23.137,4.401,877,3.859677,98,37.4,4045.228,4370,Li-ion
2023-04-14 14:26:53.471,4.401,799,3.516399,98,37.2,4074.152,4370,Li-ion
2023-04-14 14:27:00.898,4.401,850,3.74085,98,37.2,4078.284,4370,Li-ion
2023-04-14 14:27:08.334,4.401,834,3.670434,98,37.2,4078.284,4370,Li-ion
2023-04-14 14:27:15.683,4.402,792,3.486384,99,37.3,4082.416,4370,Li-ion
2023-04-14 14:27:22.879,4.4,781,3.4364,99,37.4,4103.076,4370,Li-ion
2023-04-14 14:27:30.077,4.4,785,3.454,99,37.4,4103.076,4370,Li-ion
2023-04-14 14:27:37.331,4.4,794,3.4936,99,37.4,4103.076,4370,Li-ion
2023-04-14 14:27:44.525,4.402,761,3.34992,99,37.5,4107.208,4370,Li-ion
2023-04-14 14:27:51.733,4.401,770,3.38877,99,37.6,4107.208,4370,Li-ion
2023-04-14 14:27:58.937,4.401,765,3.366765,99,37.6,4107.208,4370,Li-ion
2023-04-14 14:28:06.172,4.4,757,3.3308,100,37.7,4127.868,4370,Li-ion
2023-04-14 14:28:13.695,4.401,764,3.362364,100,37.7,4132.0,4370,Li-ion
2023-04-14 14:28:20.899,4.4,756,3.3264,100,37.7,4132.0,4370,Li-ion
2023-04-14 14:28:28.096,4.4,743,3.2692,100,37.7,4132.0,4370,Li-ion
2023-04-14 14:28:35.313,4.4,715,3.146,100,37.7,4132.0,4370,Li-ion
2023-04-14 14:28:42.507,4.4,745,3.278,100,37.7,4132.0,4370,Li-ion
2023-04-14 14:28:49.808,4.4,736,3.2384,100,37.7,4132.0,4370,Li-ion
2023-04-14 14:28:57.060,4.4,750,3.3,100,37.7,4132.0,4370,Li-ion
2023-04-14 14:29:04.377,4.4,741,3.2604,100,37.7,4132.0,4370,Li-ion
2023-04-14 14:29:11.800,4.4,745,3.278,100,37.7,4132.0,4370,Li-ion
2023-04-14 14:29:19.494,4.4,716,3.1504,100,37.7,4132.0,4370,Li-ion
2023-04-14 14:29:27.052,4.4,701,3.0844,100,37.7,4132.0,4370,Li-ion
2023-04-14 14:29:34.458,4.4,703,3.0932,100,37.7,4132.0,4370,Li-ion
2023-04-14 14:29:41.920,4.4,687,3.0228,100,37.7,4132.0,4370,Li-ion
2023-04-14 14:29:49.208,4.4,735,3.234,100,37.7,4132.0,4370,Li-ion
2023-04-14 14:29:56.453,4.4,662,2.9128,100,37.7,4132.0,4370,Li-ion
2023-04-14 14:30:03.660,4.4,697,3.0668,100,37.7,4132.0,4370,Li-ion
2023-04-14 14:30:10.848,4.4,685,3.014,100,37.7,4132.0,4370,Li-ion
2023-04-14 14:30:18.072,4.4,679,2.9876,100,37.7,4132.0,4370,Li-ion
2023-04-14 14:30:25.580,4.4,673,2.9612,100,37.7,4132.0,4370,Li-ion
2023-04-14 14:30:29.695,4.4,661,2.9084,100,37.7,4132.0,4370,Li-ion